state_time,loop_time,accel_x,accel_y,accel_z,gyro_x,gyro_y,gyro_z,motor_angle,motor_velocity,motor_current,hip_angle,hip_velocity,hip_torque_from_current,did_heel_strike,gait_phase,did_toe_off,commanded_current,commanded_position,commanded_torque,commanded_voltage,temperature
53.007,2.640999144000034,-0.91748046875,0.374755859375,0.002685546875,0.2748091603053435,0.7022900763358778,0.0,4605,0,-1,101.18408203125,0.03475543842154819,-0.001314,False,,False,,,,,29
53.007,2.643001292000008,-0.91748046875,0.374755859375,0.002685546875,0.2748091603053435,0.7022900763358778,0.0,4605,0,-1,101.18408203125,0.03475543842154819,-0.001314,False,,False,,,,,29
53.007,2.645002737000027,-0.91748046875,0.374755859375,0.002685546875,0.2748091603053435,0.7022900763358778,0.0,4605,0,-1,101.18408203125,0.03475543842154819,-0.001314,False,,False,,,,,29
53.007,2.6470055160000356,-0.91748046875,0.374755859375,0.002685546875,0.2748091603053435,0.7022900763358778,0.0,4605,0,-1,101.18408203125,0.03475543842154819,-0.001314,False,,False,,,,,29
53.007,2.6490082200000415,-0.91748046875,0.374755859375,0.002685546875,0.2748091603053435,0.7022900763358778,0.0,4605,0,-1,101.18408203125,0.03475543842154819,-0.001314,False,,False,,,,,29
53.007,2.651008387000047,-0.91748046875,0.374755859375,0.002685546875,0.2748091603053435,0.7022900763358778,0.0,4605,0,-1,101.18408203125,0.03475543842154819,-0.001314,False,,False,,,,,29
53.007,2.6530092770000238,-0.91748046875,0.374755859375,0.002685546875,0.2748091603053435,0.7022900763358778,0.0,4605,0,-1,101.18408203125,0.03475543842154819,-0.001314,False,,False,,,,,29
53.007,2.655011017999982,-0.91748046875,0.374755859375,0.002685546875,0.2748091603053435,0.7022900763358778,0.0,4605,0,-1,101.18408203125,0.03475543842154819,-0.001314,False,,False,,,,,29
53.007,2.6570124999999507,-0.91748046875,0.374755859375,0.002685546875,0.2748091603053435,0.7022900763358778,0.0,4605,0,-1,101.18408203125,0.03475543842154819,-0.001314,False,,False,,,,,29
53.022,2.6596606619999648,-0.921630859375,0.37353515625,0.002197265625,0.15267175572519084,0.5190839694656488,-0.0916030534351145,4604,4,-5,101.162109375,0.05051635647508587,-0.0065699999999999995,False,,False,,,,,29
53.027,2.6616604769999412,-0.92236328125,0.37255859375,0.00439453125,0.3053435114503817,0.8244274809160305,-0.030534351145038167,4605,0,-6,101.18408203125,0.07136186487125015,-0.007884,False,,False,,,,,29
53.027,2.663660885000013,-0.92236328125,0.37255859375,0.00439453125,0.3053435114503817,0.8244274809160305,-0.030534351145038167,4605,0,-6,101.18408203125,0.07136186487125015,-0.007884,False,,False,,,,,29
53.032000000000004,2.665682181999955,-0.92333984375,0.376953125,0.005126953125,0.0916030534351145,0.3969465648854962,-0.12213740458015267,4604,1,-8,101.162109375,0.09838993728738163,-0.010512,False,,False,,,,,29
53.032000000000004,2.6676803310000423,-0.92333984375,0.376953125,0.005126953125,0.0916030534351145,0.3969465648854962,-0.12213740458015267,4604,1,-8,101.162109375,0.09838993728738163,-0.010512,False,,False,,,,,29
53.032000000000004,2.669794793000051,-0.92333984375,0.376953125,0.005126953125,0.0916030534351145,0.3969465648854962,-0.12213740458015267,4604,1,-8,101.162109375,0.09838993728738163,-0.010512,False,,False,,,,,29
53.037,2.6717953869999747,-0.92236328125,0.377197265625,0.00439453125,0.0916030534351145,0.33587786259541985,-0.183206106870229,4604,0,-4,101.162109375,0.10367640291957804,-0.005256,False,,False,,,,,29
53.037,2.6737948500000357,-0.92236328125,0.377197265625,0.00439453125,0.0916030534351145,0.33587786259541985,-0.183206106870229,4604,0,-4,101.162109375,0.10367640291957804,-0.005256,False,,False,,,,,29
53.042,2.6757984429999624,-0.926025390625,0.371826171875,0.004638671875,0.061068702290076333,0.48854961832061067,-0.0916030534351145,4604,-1,-5,101.162109375,0.09068461070400281,-0.0065699999999999995,False,,False,,,,,29
53.042,2.677797518000034,-0.926025390625,0.371826171875,0.004638671875,0.061068702290076333,0.48854961832061067,-0.0916030534351145,4604,-1,-5,101.162109375,0.09068461070400281,-0.0065699999999999995,False,,False,,,,,29
53.042,2.679803407999998,-0.926025390625,0.371826171875,0.004638671875,0.061068702290076333,0.48854961832061067,-0.0916030534351145,4604,-1,-5,101.162109375,0.09068461070400281,-0.0065699999999999995,False,,False,,,,,29
53.047000000000004,2.6818047599999773,-0.920654296875,0.373046875,0.00341796875,0.21374045801526717,0.48854961832061067,-0.061068702290076333,4604,-6,-5,101.162109375,0.07849439753109166,-0.0065699999999999995,False,,False,,,,,29
53.047000000000004,2.683803315999967,-0.920654296875,0.373046875,0.00341796875,0.21374045801526717,0.48854961832061067,-0.061068702290076333,4604,-6,-5,101.162109375,0.07849439753109166,-0.0065699999999999995,False,,False,,,,,29
53.052,2.685983888999999,-0.92138671875,0.375,0.00341796875,0.0,0.6106870229007634,0.0,4605,1,2,101.18408203125,0.08306744049849148,0.002628,False,,False,,,,,29
53.052,2.6879830569999967,-0.92138671875,0.375,0.00341796875,0.0,0.6106870229007634,0.0,4605,1,2,101.18408203125,0.08306744049849148,0.002628,False,,False,,,,,29
53.052,2.689986761,-0.92138671875,0.375,0.00341796875,0.0,0.6106870229007634,0.0,4605,1,2,101.18408203125,0.08306744049849148,0.002628,False,,False,,,,,29
53.057,2.691991057999985,-0.9169921875,0.375244140625,0.003173828125,0.3969465648854962,0.48854961832061067,-0.21374045801526717,4604,-5,5,101.162109375,0.10160812550115907,0.0065699999999999995,False,,False,,,,,29
53.057,2.69398739199994,-0.9169921875,0.375244140625,0.003173828125,0.3969465648854962,0.48854961832061067,-0.21374045801526717,4604,-5,5,101.162109375,0.10160812550115907,0.0065699999999999995,False,,False,,,,,29
53.062,2.695992725999986,-0.922119140625,0.3779296875,0.00341796875,0.2748091603053435,0.3969465648854962,-0.12213740458015267,4605,-2,0,101.18408203125,0.11565807770757894,0.0,False,,False,,,,,29
53.062,2.697990171000015,-0.922119140625,0.3779296875,0.00341796875,0.2748091603053435,0.3969465648854962,-0.12213740458015267,4605,-2,0,101.18408203125,0.11565807770757894,0.0,False,,False,,,,,29
53.062,2.699997875000008,-0.922119140625,0.3779296875,0.00341796875,0.2748091603053435,0.3969465648854962,-0.12213740458015267,4605,-2,0,101.18408203125,0.11565807770757894,0.0,False,,False,,,,,29
53.067,2.7020005419999507,-0.92041015625,0.374267578125,0.00439453125,0.183206106870229,0.42748091603053434,0.0,4604,-6,-2,101.162109375,0.12574493300752007,-0.002628,False,,False,,,,,29
53.067,2.703999080000017,-0.92041015625,0.374267578125,0.00439453125,0.183206106870229,0.42748091603053434,0.0,4604,-6,-2,101.162109375,0.12574493300752007,-0.002628,False,,False,,,,,29
53.072,2.7060012289999804,-0.919189453125,0.375,0.003173828125,0.42748091603053434,0.3969465648854962,0.030534351145038167,4604,-7,0,101.162109375,0.11645223819075776,0.0,False,,False,,,,,29
53.072,2.7081353019999597,-0.919189453125,0.375,0.003173828125,0.42748091603053434,0.3969465648854962,0.030534351145038167,4604,-7,0,101.162109375,0.11645223819075776,0.0,False,,False,,,,,29
53.072,2.710136766000005,-0.919189453125,0.375,0.003173828125,0.42748091603053434,0.3969465648854962,0.030534351145038167,4604,-7,0,101.162109375,0.11645223819075776,0.0,False,,False,,,,,29
53.077,2.7121374329999526,-0.9169921875,0.376220703125,0.002685546875,0.4580152671755725,0.48854961832061067,0.030534351145038167,4604,-4,0,101.162109375,0.09106996033083915,0.0,False,,False,,,,,29
53.077,2.714136434000011,-0.9169921875,0.376220703125,0.002685546875,0.4580152671755725,0.48854961832061067,0.030534351145038167,4604,-4,0,101.162109375,0.09106996033083915,0.0,False,,False,,,,,29
53.082,2.7161403049999535,-0.919677734375,0.371337890625,0.001708984375,0.4580152671755725,0.48854961832061067,-0.030534351145038167,4605,2,0,101.18408203125,0.0844166700667445,0.0,False,,False,,,,,29
53.082,2.7183251180000525,-0.919677734375,0.371337890625,0.001708984375,0.4580152671755725,0.48854961832061067,-0.030534351145038167,4605,2,0,101.18408203125,0.0844166700667445,0.0,False,,False,,,,,29
53.082,2.720433580999952,-0.919677734375,0.371337890625,0.001708984375,0.4580152671755725,0.48854961832061067,-0.030534351145038167,4605,2,0,101.18408203125,0.0844166700667445,0.0,False,,False,,,,,29
53.087,2.722436341000048,-0.91796875,0.373779296875,0.000244140625,0.48854961832061067,0.42748091603053434,-0.12213740458015267,4604,1,1,101.162109375,0.09353932895792699,0.001314,False,,False,,,,,29
53.087,2.724437600999977,-0.91796875,0.373779296875,0.000244140625,0.48854961832061067,0.42748091603053434,-0.12213740458015267,4604,1,1,101.162109375,0.09353932895792699,0.001314,False,,False,,,,,29
53.092,2.7286575450000328,-0.917724609375,0.371826171875,-0.0009765625,0.366412213740458,0.366412213740458,0.0916030534351145,4604,-1,7,101.162109375,0.08390598036297646,0.009198,False,,False,,,,,29
53.092,2.7306842120000283,-0.917724609375,0.371826171875,-0.0009765625,0.366412213740458,0.366412213740458,0.0916030534351145,4604,-1,7,101.162109375,0.08390598036297646,0.009198,False,,False,,,,,29
53.097,2.7326849900000525,-0.91943359375,0.3759765625,0.000732421875,0.366412213740458,0.366412213740458,-0.12213740458015267,4603,-2,0,101.14013671875,0.04279440953705445,0.0,False,,False,,,,,29
53.097,2.7346867679999605,-0.91943359375,0.3759765625,0.000732421875,0.366412213740458,0.366412213740458,-0.12213740458015267,4603,-2,0,101.14013671875,0.04279440953705445,0.0,False,,False,,,,,29
53.102000000000004,2.7366883800000323,-0.91650390625,0.373291015625,0.001708984375,0.42748091603053434,0.15267175572519084,0.030534351145038167,4604,2,-2,101.162109375,-0.00815898669546353,-0.002628,False,,False,,,,,29
53.102000000000004,2.7386897139999746,-0.91650390625,0.373291015625,0.001708984375,0.42748091603053434,0.15267175572519084,0.030534351145038167,4604,2,-2,101.162109375,-0.00815898669546353,-0.002628,False,,False,,,,,29
53.107,2.7407041029999846,-0.920166015625,0.37451171875,0.002685546875,0.33587786259541985,0.12213740458015267,0.0,4603,-3,-3,101.14013671875,-0.05069803808534591,-0.003942,False,,False,,,,,29
53.107,2.7427022890000217,-0.920166015625,0.37451171875,0.002685546875,0.33587786259541985,0.12213740458015267,0.0,4603,-3,-3,101.14013671875,-0.05069803808534591,-0.003942,False,,False,,,,,29
53.107,2.7447073820000014,-0.920166015625,0.37451171875,0.002685546875,0.33587786259541985,0.12213740458015267,0.0,4603,-3,-3,101.14013671875,-0.05069803808534591,-0.003942,False,,False,,,,,29
53.107,2.7467067159999488,-0.920166015625,0.37451171875,0.002685546875,0.33587786259541985,0.12213740458015267,0.0,4603,-3,-3,101.14013671875,-0.05069803808534591,-0.003942,False,,False,,,,,29
53.112,2.74893673400004,-0.91943359375,0.375732421875,0.000244140625,0.48854961832061067,0.0916030534351145,0.12213740458015267,4603,-9,-2,101.14013671875,-0.10149209537622342,-0.002628,False,,False,,,,,29
53.117000000000004,2.75093497499995,-0.91943359375,0.377197265625,0.00146484375,0.3969465648854962,0.0,0.12213740458015267,4603,-2,-4,101.14013671875,-0.15846125254496723,-0.005256,False,,False,,,,,29
53.117000000000004,2.7529337160000296,-0.91943359375,0.377197265625,0.00146484375,0.3969465648854962,0.0,0.12213740458015267,4603,-2,-4,101.14013671875,-0.15846125254496723,-0.005256,False,,False,,,,,29
53.122,2.7567432009999493,-0.920654296875,0.376708984375,0.00048828125,0.5190839694656488,0.030534351145038167,0.0916030534351145,4604,-7,-2,101.162109375,-0.1879436082625461,-0.002628,False,,False,,,,,29
53.122,2.7587438120000343,-0.920654296875,0.376708984375,0.00048828125,0.5190839694656488,0.030534351145038167,0.0916030534351145,4604,-7,-2,101.162109375,-0.1879436082625461,-0.002628,False,,False,,,,,29
53.127,2.760746498000003,-0.918212890625,0.3740234375,-0.002685546875,0.5801526717557252,0.0,0.183206106870229,4604,0,3,101.162109375,-0.17807182274770098,0.003942,False,,False,,,,,29
53.127,2.7627450539999927,-0.918212890625,0.3740234375,-0.002685546875,0.5801526717557252,0.0,0.183206106870229,4604,0,3,101.162109375,-0.17807182274770098,0.003942,False,,False,,,,,29
53.127,2.7647488139999723,-0.918212890625,0.3740234375,-0.002685546875,0.5801526717557252,0.0,0.183206106870229,4604,0,3,101.162109375,-0.17807182274770098,0.003942,False,,False,,,,,29
53.132,2.766747333000012,-0.923583984375,0.378173828125,0.000732421875,0.6412213740458015,-0.0916030534351145,0.061068702290076333,4604,4,1,101.162109375,-0.15131207473952193,0.001314,False,,False,,,,,29
53.132,2.768751982000026,-0.923583984375,0.378173828125,0.000732421875,0.6412213740458015,-0.0916030534351145,0.061068702290076333,4604,4,1,101.162109375,-0.15131207473952193,0.001314,False,,False,,,,,29
53.137,2.7707539460000135,-0.9208984375,0.374267578125,0.002197265625,0.6106870229007634,-0.030534351145038167,0.030534351145038167,4603,5,2,101.14013671875,-0.14263288073345412,0.002628,False,,False,,,,,29
53.137,2.7727542799999583,-0.9208984375,0.374267578125,0.002197265625,0.6106870229007634,-0.030534351145038167,0.030534351145038167,4603,5,2,101.14013671875,-0.14263288073345412,0.002628,False,,False,,,,,29
53.137,2.7747552250000354,-0.9208984375,0.374267578125,0.002197265625,0.6106870229007634,-0.030534351145038167,0.030534351145038167,4603,5,2,101.14013671875,-0.14263288073345412,0.002628,False,,False,,,,,29
53.142,2.7767568739999433,-0.921875,0.375,0.002685546875,0.6106870229007634,-0.12213740458015267,-0.12213740458015267,4603,7,3,101.14013671875,-0.16513172048337565,0.003942,False,,False,,,,,29
53.142,2.7787589670000443,-0.921875,0.375,0.002685546875,0.6106870229007634,-0.12213740458015267,-0.12213740458015267,4603,7,3,101.14013671875,-0.16513172048337565,0.003942,False,,False,,,,,29
53.147,2.780760207999947,-0.92333984375,0.3798828125,0.00244140625,0.7022900763358778,-0.2748091603053435,-0.15267175572519084,4602,-6,0,101.1181640625,-0.21340630348795642,0.0,False,,False,,,,,29
53.147,2.7827620790000083,-0.92333984375,0.3798828125,0.00244140625,0.7022900763358778,-0.2748091603053435,-0.15267175572519084,4602,-6,0,101.1181640625,-0.21340630348795642,0.0,False,,False,,,,,29
53.147,2.784763042999998,-0.92333984375,0.3798828125,0.00244140625,0.7022900763358778,-0.2748091603053435,-0.15267175572519084,4602,-6,0,101.1181640625,-0.21340630348795642,0.0,False,,False,,,,,29
53.152,2.7867640800000117,-0.92724609375,0.380615234375,0.0029296875,0.8854961832061068,-0.3053435114503817,-0.15267175572519084,4602,-1,-2,101.1181640625,-0.2825605251332124,-0.002628,False,,False,,,,,29
53.152,2.7887653770000043,-0.92724609375,0.380615234375,0.0029296875,0.8854961832061068,-0.3053435114503817,-0.15267175572519084,4602,-1,-2,101.1181640625,-0.2825605251332124,-0.002628,False,,False,,,,,29
53.157000000000004,2.7909139140000434,-0.921142578125,0.37548828125,0.0029296875,0.9770992366412213,-0.5190839694656488,-0.030534351145038167,4603,1,6,101.14013671875,-0.33636179367864144,0.007884,False,,False,,,,,29
53.157000000000004,2.7929134139999405,-0.921142578125,0.37548828125,0.0029296875,0.9770992366412213,-0.5190839694656488,-0.030534351145038167,4603,1,6,101.14013671875,-0.33636179367864144,0.007884,False,,False,,,,,29
53.157000000000004,2.7949184149999837,-0.921142578125,0.37548828125,0.0029296875,0.9770992366412213,-0.5190839694656488,-0.030534351145038167,4603,1,6,101.14013671875,-0.33636179367864144,0.007884,False,,False,,,,,29
53.162,2.7969188229999418,-0.92236328125,0.376708984375,0.00537109375,1.0076335877862594,-0.2748091603053435,-0.21374045801526717,4602,-1,3,101.1181640625,-0.36061485476232524,0.003942,False,,False,,,,,29
53.162,2.7989217309999503,-0.92236328125,0.376708984375,0.00537109375,1.0076335877862594,-0.2748091603053435,-0.21374045801526717,4602,-1,3,101.1181640625,-0.36061485476232524,0.003942,False,,False,,,,,29
53.167,2.80092047200003,-0.925048828125,0.376953125,0.0048828125,0.916030534351145,-0.5190839694656488,0.061068702290076333,4602,3,9,101.1181640625,-0.3916105364693096,0.011826,False,,False,,,,,29
53.167,2.8029245100000253,-0.925048828125,0.376953125,0.0048828125,0.916030534351145,-0.5190839694656488,0.061068702290076333,4602,3,9,101.1181640625,-0.3916105364693096,0.011826,False,,False,,,,,29
53.167,2.80492084399998,-0.925048828125,0.376953125,0.0048828125,0.916030534351145,-0.5190839694656488,0.061068702290076333,4602,3,9,101.1181640625,-0.3916105364693096,0.011826,False,,False,,,,,29
53.172000000000004,2.806926880999981,-0.926025390625,0.375732421875,0.005859375,1.1908396946564885,-0.366412213740458,-0.061068702290076333,4602,2,-2,101.1181640625,-0.42780199049355583,-0.002628,False,,False,,,,,29
53.172000000000004,2.80892975200004,-0.926025390625,0.375732421875,0.005859375,1.1908396946564885,-0.366412213740458,-0.061068702290076333,4602,2,-2,101.1181640625,-0.42780199049355583,-0.002628,False,,False,,,,,29
53.177,2.8109292530000403,-0.92236328125,0.370361328125,0.00439453125,1.0687022900763359,-0.33587786259541985,-0.0916030534351145,4602,5,-2,101.1181640625,-0.4519033614908499,-0.002628,False,,False,,,,,29
53.177,2.8129309199999852,-0.92236328125,0.370361328125,0.00439453125,1.0687022900763359,-0.33587786259541985,-0.0916030534351145,4602,5,-2,101.1181640625,-0.4519033614908499,-0.002628,False,,False,,,,,29
53.177,2.8150880120000465,-0.92236328125,0.370361328125,0.00439453125,1.0687022900763359,-0.33587786259541985,-0.0916030534351145,4602,5,-2,101.1181640625,-0.4519033614908499,-0.002628,False,,False,,,,,29
53.182,2.8170886980000205,-0.92236328125,0.373779296875,0.005615234375,1.1908396946564885,-0.3053435114503817,-0.061068702290076333,4601,-4,0,101.09619140625,-0.4814495794514096,0.0,False,,False,,,,,29
53.182,2.819091606000029,-0.92236328125,0.373779296875,0.005615234375,1.1908396946564885,-0.3053435114503817,-0.061068702290076333,4601,-4,0,101.09619140625,-0.4814495794514096,0.0,False,,False,,,,,29
53.187,2.8210913289999553,-0.921875,0.372314453125,0.004638671875,1.1603053435114503,-0.33587786259541985,0.0,4602,5,3,101.1181640625,-0.5151260954177944,0.003942,False,,False,,,,,29
53.187,2.823095291999948,-0.921875,0.372314453125,0.004638671875,1.1603053435114503,-0.33587786259541985,0.0,4602,5,3,101.1181640625,-0.5151260954177944,0.003942,False,,False,,,,,29
53.187,2.8250922930000115,-0.921875,0.372314453125,0.004638671875,1.1603053435114503,-0.33587786259541985,0.0,4602,5,3,101.1181640625,-0.5151260954177944,0.003942,False,,False,,,,,29
53.192,2.8270989970000073,-0.923095703125,0.368408203125,0.004150390625,1.1603053435114503,-0.2748091603053435,0.0916030534351145,4600,-1,-2,101.07421875,-0.5517725586274022,-0.002628,False,,False,,,,,29
53.192,2.8290974789999837,-0.923095703125,0.368408203125,0.004150390625,1.1603053435114503,-0.2748091603053435,0.0916030534351145,4600,-1,-2,101.07421875,-0.5517725586274022,-0.002628,False,,False,,,,,29
53.197,2.8310992020000185,-0.92236328125,0.373046875,0.003173828125,1.282442748091603,-0.15267175572519084,0.12213740458015267,4601,2,-1,101.09619140625,-0.6062901124955753,-0.001314,False,,False,,,,,29
53.197,2.8330982400000266,-0.92236328125,0.373046875,0.003173828125,1.282442748091603,-0.15267175572519084,0.12213740458015267,4601,2,-1,101.09619140625,-0.6062901124955753,-0.001314,False,,False,,,,,29
53.197,2.835099851999985,-0.92236328125,0.373046875,0.003173828125,1.282442748091603,-0.15267175572519084,0.12213740458015267,4601,2,-1,101.09619140625,-0.6062901124955753,-0.001314,False,,False,,,,,29
53.202,2.837103371000012,-0.9248046875,0.367919921875,0.005126953125,1.1908396946564885,-0.0916030534351145,0.030534351145038167,4600,-9,1,101.07421875,-0.6590636420878503,0.001314,False,,False,,,,,29
53.202,2.8391055939999887,-0.9248046875,0.367919921875,0.005126953125,1.1908396946564885,-0.0916030534351145,0.030534351145038167,4600,-9,1,101.07421875,-0.6590636420878503,0.001314,False,,False,,,,,29
53.207,2.8411063910000394,-0.9267578125,0.370361328125,0.00341796875,1.129770992366412,-0.030534351145038167,0.0,4600,0,-1,101.07421875,-0.7096125908906133,-0.001314,False,,False,,,,,29
53.207,2.843105225000045,-0.9267578125,0.370361328125,0.00341796875,1.129770992366412,-0.030534351145038167,0.0,4600,0,-1,101.07421875,-0.7096125908906133,-0.001314,False,,False,,,,,29
53.207,2.845107539999958,-0.9267578125,0.370361328125,0.00341796875,1.129770992366412,-0.030534351145038167,0.0,4600,0,-1,101.07421875,-0.7096125908906133,-0.001314,False,,False,,,,,29
53.212,2.8471090409999533,-0.926513671875,0.3671875,0.001708984375,1.0381679389312977,-0.183206106870229,0.24427480916030533,4600,0,2,101.07421875,-0.7575668727007258,0.002628,False,,False,,,,,29
53.212,2.849115966999989,-0.926513671875,0.3671875,0.001708984375,1.0381679389312977,-0.183206106870229,0.24427480916030533,4600,0,2,101.07421875,-0.7575668727007258,0.002628,False,,False,,,,,29
53.217,2.8511153749999494,-0.923828125,0.371337890625,0.00244140625,1.2213740458015268,0.15267175572519084,0.21374045801526717,4600,1,4,101.07421875,-0.7867386537745822,0.005256,False,,False,,,,,29
53.217,2.8531124129999625,-0.923828125,0.371337890625,0.00244140625,1.2213740458015268,0.15267175572519084,0.21374045801526717,4600,1,4,101.07421875,-0.7867386537745822,0.005256,False,,False,,,,,29
53.217,2.8551175799999555,-0.923828125,0.371337890625,0.00244140625,1.2213740458015268,0.15267175572519084,0.21374045801526717,4600,1,4,101.07421875,-0.7867386537745822,0.005256,False,,False,,,,,29
53.222,2.85711543299999,-0.926513671875,0.37548828125,0.00341796875,1.2519083969465647,0.0916030534351145,0.33587786259541985,4599,-7,-1,101.05224609375,-0.8156790588611447,-0.001314,False,,False,,,,,29
53.222,2.859120988999962,-0.926513671875,0.37548828125,0.00341796875,1.2519083969465647,0.0916030534351145,0.33587786259541985,4599,-7,-1,101.05224609375,-0.8156790588611447,-0.001314,False,,False,,,,,29
53.227000000000004,2.861122045000002,-0.927001953125,0.37109375,0.004638671875,1.0381679389312977,0.2748091603053435,0.2748091603053435,4599,-1,0,101.05224609375,-0.8599221010909505,0.0,False,,False,,,,,29
53.227000000000004,2.863206525999999,-0.927001953125,0.37109375,0.004638671875,1.0381679389312977,0.2748091603053435,0.2748091603053435,4599,-1,0,101.05224609375,-0.8599221010909505,0.0,False,,False,,,,,29
53.227000000000004,2.8652052310000045,-0.927001953125,0.37109375,0.004638671875,1.0381679389312977,0.2748091603053435,0.2748091603053435,4599,-1,0,101.05224609375,-0.8599221010909505,0.0,False,,False,,,,,29
53.232,2.8672076389999575,-0.92919921875,0.375244140625,0.00244140625,1.0687022900763359,0.42748091603053434,0.4580152671755725,4598,-3,-3,101.0302734375,-0.9163352935200995,-0.003942,False,,False,,,,,29
53.232,2.869207527999947,-0.92919921875,0.375244140625,0.00244140625,1.0687022900763359,0.42748091603053434,0.4580152671755725,4598,-3,-3,101.0302734375,-0.9163352935200995,-0.003942,False,,False,,,,,29
53.237,2.871214825000038,-0.928955078125,0.375732421875,0.0009765625,1.1603053435114503,0.4580152671755725,0.42748091603053434,4598,-1,-2,101.0302734375,-0.9821198699243159,-0.002628,False,,False,,,,,29
53.242000000000004,2.8761625209999693,-0.928466796875,0.37744140625,0.006103515625,1.1908396946564885,0.5801526717557252,0.3053435114503817,4598,-3,-1,101.0302734375,-1.0388814013070955,-0.001314,False,,False,,,,,29
53.242000000000004,2.878156170000011,-0.928466796875,0.37744140625,0.006103515625,1.1908396946564885,0.5801526717557252,0.3053435114503817,4598,-3,-1,101.0302734375,-1.0388814013070955,-0.001314,False,,False,,,,,29
53.242000000000004,2.8801550599999928,-0.928466796875,0.37744140625,0.006103515625,1.1908396946564885,0.5801526717557252,0.3053435114503817,4598,-3,-1,101.0302734375,-1.0388814013070955,-0.001314,False,,False,,,,,29
53.247,2.882159541999954,-0.92724609375,0.376953125,0.003662109375,1.3129770992366412,0.6106870229007634,0.5801526717557252,4597,-1,-2,101.00830078125,-1.087266716203599,-0.002628,False,,False,,,,,29
53.247,2.8841579129999673,-0.92724609375,0.376953125,0.003662109375,1.3129770992366412,0.6106870229007634,0.5801526717557252,4597,-1,-2,101.00830078125,-1.087266716203599,-0.002628,False,,False,,,,,29
53.252,2.886162784000021,-0.923828125,0.37646484375,0.00732421875,1.3740458015267174,0.42748091603053434,0.549618320610687,4598,-11,-5,101.0302734375,-1.1279386715486475,-0.0065699999999999995,False,,False,,,,,29
53.252,2.8881624880000345,-0.923828125,0.37646484375,0.00732421875,1.3740458015267174,0.42748091603053434,0.549618320610687,4598,-11,-5,101.0302734375,-1.1279386715486475,-0.0065699999999999995,False,,False,,,,,29
53.252,2.8901642109999557,-0.923828125,0.37646484375,0.00732421875,1.3740458015267174,0.42748091603053434,0.549618320610687,4598,-11,-5,101.0302734375,-1.1279386715486475,-0.0065699999999999995,False,,False,,,,,29
53.257,2.8921680079999987,-0.927001953125,0.3828125,0.00634765625,1.4045801526717556,0.5190839694656488,0.4580152671755725,4597,-6,-8,101.00830078125,-1.145648347737388,-0.010512,False,,False,,,,,29
53.257,2.894165064000049,-0.927001953125,0.3828125,0.00634765625,1.4045801526717556,0.5190839694656488,0.4580152671755725,4597,-6,-8,101.00830078125,-1.145648347737388,-0.010512,False,,False,,,,,29
53.262,2.8961702679999917,-0.922607421875,0.376708984375,0.009521484375,1.5267175572519083,0.3969465648854962,0.549618320610687,4598,-2,-6,101.0302734375,-1.1438778699178964,-0.007884,False,,False,,,,,29
53.262,2.8981721760000028,-0.922607421875,0.376708984375,0.009521484375,1.5267175572519083,0.3969465648854962,0.549618320610687,4598,-2,-6,101.0302734375,-1.1438778699178964,-0.007884,False,,False,,,,,29
53.262,2.9001735470000085,-0.922607421875,0.376708984375,0.009521484375,1.5267175572519083,0.3969465648854962,0.549618320610687,4598,-2,-6,101.0302734375,-1.1438778699178964,-0.007884,False,,False,,,,,29
53.267,2.902237713999966,-0.926513671875,0.37744140625,0.00634765625,1.465648854961832,0.030534351145038167,0.48854961832061067,4598,0,-4,101.0302734375,-1.1099090204313216,-0.005256,False,,False,,,,,29
53.267,2.9042383810000274,-0.926513671875,0.37744140625,0.00634765625,1.465648854961832,0.030534351145038167,0.48854961832061067,4598,0,-4,101.0302734375,-1.1099090204313216,-0.005256,False,,False,,,,,29
53.272,2.9062412519999725,-0.925537109375,0.375,0.005859375,1.8625954198473282,-0.030534351145038167,0.4580152671755725,4597,0,-5,101.00830078125,-1.0653919749967111,-0.0065699999999999995,False,,False,,,,,29
53.272,2.908243956999968,-0.925537109375,0.375,0.005859375,1.8625954198473282,-0.030534351145038167,0.4580152671755725,4597,0,-5,101.00830078125,-1.0653919749967111,-0.0065699999999999995,False,,False,,,,,29
53.272,2.9102453460000106,-0.925537109375,0.375,0.005859375,1.8625954198473282,-0.030534351145038167,0.4580152671755725,4597,0,-5,101.00830078125,-1.0653919749967111,-0.0065699999999999995,False,,False,,,,,29
53.277,2.912384846000009,-0.9248046875,0.376220703125,0.006591796875,1.7709923664122136,-0.183206106870229,0.42748091603053434,4597,1,0,101.00830078125,-1.0445202648925602,0.0,False,,False,,,,,29
53.277,2.9142454210000324,-0.9248046875,0.376220703125,0.006591796875,1.7709923664122136,-0.183206106870229,0.42748091603053434,4597,1,0,101.00830078125,-1.0445202648925602,0.0,False,,False,,,,,29
53.282000000000004,2.916249515000004,-0.9248046875,0.373291015625,0.00732421875,2.16793893129771,-0.24427480916030533,0.33587786259541985,4597,5,4,101.00830078125,-1.0278307658166268,0.005256,False,,False,,,,,29
53.282000000000004,2.9182498860000123,-0.9248046875,0.373291015625,0.00732421875,2.16793893129771,-0.24427480916030533,0.33587786259541985,4597,5,4,101.00830078125,-1.0278307658166268,0.005256,False,,False,,,,,29
53.282000000000004,2.9202489790000072,-0.9248046875,0.373291015625,0.00732421875,2.16793893129771,-0.24427480916030533,0.33587786259541985,4597,5,4,101.00830078125,-1.0278307658166268,0.005256,False,,False,,,,,29
53.287,2.922253404999992,-0.92626953125,0.373291015625,0.005859375,2.198473282442748,-0.3053435114503817,0.2748091603053435,4596,-3,2,100.986328125,-1.0148843132763845,0.002628,False,,False,,,,,29
53.287,2.9242543499999556,-0.92626953125,0.373291015625,0.005859375,2.198473282442748,-0.3053435114503817,0.2748091603053435,4596,-3,2,100.986328125,-1.0148843132763845,0.002628,False,,False,,,,,29
53.292,2.9262554809999983,-0.928466796875,0.38671875,0.013671875,3.0229007633587783,-0.2748091603053435,0.6412213740458015,4595,-1,4,100.96435546875,-1.0370902075168247,0.005256,False,,False,,,,,29
53.292,2.928256962999967,-0.928466796875,0.38671875,0.013671875,3.0229007633587783,-0.2748091603053435,0.6412213740458015,4595,-1,4,100.96435546875,-1.0370902075168247,0.005256,False,,False,,,,,29
53.292,2.9302587229999517,-0.928466796875,0.38671875,0.013671875,3.0229007633587783,-0.2748091603053435,0.6412213740458015,4595,-1,4,100.96435546875,-1.0370902075168247,0.005256,False,,False,,,,,29
53.297000000000004,2.932259111999997,-0.9384765625,0.36865234375,-0.005615234375,3.5114503816793894,-0.030534351145038167,0.15267175572519084,4594,-6,1,100.9423828125,-1.1043189033687393,0.001314,False,,False,,,,,29
53.297000000000004,2.934262446000048,-0.9384765625,0.36865234375,-0.005615234375,3.5114503816793894,-0.030534351145038167,0.15267175572519084,4594,-6,1,100.9423828125,-1.1043189033687393,0.001314,False,,False,,,,,29
53.302,2.936265595000009,-0.927490234375,0.367431640625,0.00634765625,3.633587786259542,0.21374045801526717,0.15267175572519084,4594,-2,-2,100.9423828125,-1.192350346322846,-0.002628,False,,False,,,,,29
53.302,2.9382615209999585,-0.927490234375,0.367431640625,0.00634765625,3.633587786259542,0.21374045801526717,0.15267175572519084,4594,-2,-2,100.9423828125,-1.192350346322846,-0.002628,False,,False,,,,,29
53.302,2.9402650219999487,-0.927490234375,0.367431640625,0.00634765625,3.633587786259542,0.21374045801526717,0.15267175572519084,4594,-2,-2,100.9423828125,-1.192350346322846,-0.002628,False,,False,,,,,29
53.307,2.942330059000028,-0.9365234375,0.363037109375,0.010009765625,3.2671755725190836,0.366412213740458,-0.0916030534351145,4595,-6,0,100.96435546875,-1.2487754022632305,0.0,False,,False,,,,,29
53.307,2.944327262999991,-0.9365234375,0.363037109375,0.010009765625,3.2671755725190836,0.366412213740458,-0.0916030534351145,4595,-6,0,100.96435546875,-1.2487754022632305,0.0,False,,False,,,,,29
53.312,2.9463308010000446,-0.924560546875,0.36474609375,0.020263671875,2.6564885496183206,0.7938931297709924,-0.33587786259541985,4593,1,-1,100.92041015625,-1.277922756604963,-0.001314,False,,False,,,,,29
53.312,2.9483330419999447,-0.924560546875,0.36474609375,0.020263671875,2.6564885496183206,0.7938931297709924,-0.33587786259541985,4593,1,-1,100.92041015625,-1.277922756604963,-0.001314,False,,False,,,,,29
53.312,2.950333858000022,-0.924560546875,0.36474609375,0.020263671875,2.6564885496183206,0.7938931297709924,-0.33587786259541985,4593,1,-1,100.92041015625,-1.277922756604963,-0.001314,False,,False,,,,,29
53.317,2.952333320999969,-0.922607421875,0.37060546875,0.0224609375,2.748091603053435,0.3969465648854962,-0.3053435114503817,4592,-4,-4,100.8984375,-1.3474738403217705,-0.005256,False,,False,,,,,29
53.317,2.9543358590000253,-0.922607421875,0.37060546875,0.0224609375,2.748091603053435,0.3969465648854962,-0.3053435114503817,4592,-4,-4,100.8984375,-1.3474738403217705,-0.005256,False,,False,,,,,29
53.322,2.956335729999978,-0.924072265625,0.370361328125,0.0234375,2.9923664122137406,0.24427480916030533,-0.3053435114503817,4590,-4,-1,100.8544921875,-1.4816738026064842,-0.001314,False,,False,,,,,29
53.322,2.958334896999986,-0.924072265625,0.370361328125,0.0234375,2.9923664122137406,0.24427480916030533,-0.3053435114503817,4590,-4,-1,100.8544921875,-1.4816738026064842,-0.001314,False,,False,,,,,29
53.322,2.960336954000013,-0.924072265625,0.370361328125,0.0234375,2.9923664122137406,0.24427480916030533,-0.3053435114503817,4590,-4,-1,100.8544921875,-1.4816738026064842,-0.001314,False,,False,,,,,29
53.327,2.9624143050000384,-0.91845703125,0.372314453125,0.0224609375,2.931297709923664,0.030534351145038167,-0.4580152671755725,4589,-7,0,100.83251953125,-1.6680525017116623,0.0,False,,False,,,,,29
53.327,2.9644131579999566,-0.91845703125,0.372314453125,0.0224609375,2.931297709923664,0.030534351145038167,-0.4580152671755725,4589,-7,0,100.83251953125,-1.6680525017116623,0.0,False,,False,,,,,29
53.332,2.9664172330000156,-0.916015625,0.365234375,0.01806640625,3.2671755725190836,-0.6412213740458015,0.0916030534351145,4588,-7,-2,100.810546875,-1.8794986721164773,-0.002628,False,,False,,,,,29
53.332,2.968416659000013,-0.916015625,0.365234375,0.01806640625,3.2671755725190836,-0.6412213740458015,0.0916030534351145,4588,-7,-2,100.810546875,-1.8794986721164773,-0.002628,False,,False,,,,,29
53.337,2.9705561209999587,-0.922119140625,0.364013671875,0.0166015625,2.931297709923664,-1.0381679389312977,-0.030534351145038167,4586,-8,1,100.7666015625,-2.1088677067896815,0.001314,False,,False,,,,,29
53.337,2.9725494739999476,-0.922119140625,0.364013671875,0.0166015625,2.931297709923664,-1.0381679389312977,-0.030534351145038167,4586,-8,1,100.7666015625,-2.1088677067896815,0.001314,False,,False,,,,,29
53.337,2.974552567000046,-0.922119140625,0.364013671875,0.0166015625,2.931297709923664,-1.0381679389312977,-0.030534351145038167,4586,-8,1,100.7666015625,-2.1088677067896815,0.001314,False,,False,,,,,29
53.342,2.976563363999958,-0.92431640625,0.3681640625,0.01318359375,2.564885496183206,-1.129770992366412,-0.030534351145038167,4584,-10,2,100.72265625,-2.381749813384251,0.002628,False,,False,,,,,29
53.342,2.9786097899999504,-0.92431640625,0.3681640625,0.01318359375,2.564885496183206,-1.129770992366412,-0.030534351145038167,4584,-10,2,100.72265625,-2.381749813384251,0.002628,False,,False,,,,,29
53.347,2.9806103460000486,-0.921630859375,0.369140625,0.01416015625,2.3206106870229006,-1.3435114503816794,-0.33587786259541985,4582,-8,0,100.6787109375,-2.7030226896512763,0.0,False,,False,,,,,29
53.347,2.9826146799999833,-0.921630859375,0.369140625,0.01416015625,2.3206106870229006,-1.3435114503816794,-0.33587786259541985,4582,-8,0,100.6787109375,-2.7030226896512763,0.0,False,,False,,,,,29
53.347,2.98461169899997,-0.921630859375,0.369140625,0.01416015625,2.3206106870229006,-1.3435114503816794,-0.33587786259541985,4582,-8,0,100.6787109375,-2.7030226896512763,0.0,False,,False,,,,,29
53.352000000000004,2.9866152189999866,-0.913330078125,0.370361328125,0.007568359375,1.9236641221374045,-0.8549618320610687,0.21374045801526717,4576,-20,-6,100.546875,-3.1238156086088678,-0.007884,False,,False,,,,,29
53.352000000000004,2.988617700999953,-0.913330078125,0.370361328125,0.007568359375,1.9236641221374045,-0.8549618320610687,0.21374045801526717,4576,-20,-6,100.546875,-3.1238156086088678,-0.007884,False,,False,,,,,29
53.357,2.9906331270000237,-0.90771484375,0.371826171875,0.003173828125,0.9770992366412213,-0.916030534351145,0.916030534351145,4566,-38,-1,100.3271484375,-3.81281608063331,-0.001314,False,,False,,,,,29
53.357,2.992632165000032,-0.90771484375,0.371826171875,0.003173828125,0.9770992366412213,-0.916030534351145,0.916030534351145,4566,-38,-1,100.3271484375,-3.81281608063331,-0.001314,False,,False,,,,,29
53.357,2.9946383499999456,-0.90771484375,0.371826171875,0.003173828125,0.9770992366412213,-0.916030534351145,0.916030534351145,4566,-38,-1,100.3271484375,-3.81281608063331,-0.001314,False,,False,,,,,29
53.362,2.9966380729999855,-0.8974609375,0.37744140625,-0.0009765625,-1.099236641221374,-0.030534351145038167,2.1374045801526718,4547,-80,1,99.90966796875,-5.0506010782133455,0.001314,False,,False,,,,,29
53.362,2.9986391109999886,-0.8974609375,0.37744140625,-0.0009765625,-1.099236641221374,-0.030534351145038167,2.1374045801526718,4547,-80,1,99.90966796875,-5.0506010782133455,0.001314,False,,False,,,,,29
53.367000000000004,3.0006401489999917,-0.900146484375,0.358154296875,-0.00341796875,-2.045801526717557,0.5190839694656488,1.9541984732824427,4524,-95,2,99.404296875,-7.1436923663679925,0.002628,False,,False,,,,,29
53.367000000000004,3.0026419089999763,-0.900146484375,0.358154296875,-0.00341796875,-2.045801526717557,0.5190839694656488,1.9541984732824427,4524,-95,2,99.404296875,-7.1436923663679925,0.002628,False,,False,,,,,29
53.367000000000004,3.004642094000019,-0.900146484375,0.358154296875,-0.00341796875,-2.045801526717557,0.5190839694656488,1.9541984732824427,4524,-95,2,99.404296875,-7.1436923663679925,0.002628,False,,False,,,,,29
53.372,3.0066439099999798,-0.910400390625,0.344970703125,-0.01220703125,2.8702290076335877,0.6717557251908397,0.7938931297709924,4509,-70,7,99.07470703125,-10.065748680440237,0.009198,False,,False,,,,,29
53.372,3.008645817999991,-0.910400390625,0.344970703125,-0.01220703125,2.8702290076335877,0.6717557251908397,0.7938931297709924,4509,-70,7,99.07470703125,-10.065748680440237,0.009198,False,,False,,,,,29
53.377,3.0106462630000124,-0.90771484375,0.34130859375,0.001220703125,1.7404580152671756,0.8244274809160305,1.1603053435114503,4492,-66,0,98.701171875,-13.48031234844205,0.0,False,,False,,,,,29
53.377,3.0126485780000394,-0.90771484375,0.34130859375,0.001220703125,1.7404580152671756,0.8244274809160305,1.1603053435114503,4492,-66,0,98.701171875,-13.48031234844205,0.0,False,,False,,,,,29
53.377,3.014650338000024,-0.90771484375,0.34130859375,0.001220703125,1.7404580152671756,0.8244274809160305,1.1603053435114503,4492,-66,0,98.701171875,-13.48031234844205,0.0,False,,False,,,,,29
53.382,3.016651505000027,-0.907470703125,0.333740234375,0.010009765625,-1.282442748091603,1.6793893129770991,1.7709923664122136,4470,-102,0,98.2177734375,-17.27364388038561,0.0,False,,False,,,,,29
53.382,3.01865498799998,-0.907470703125,0.333740234375,0.010009765625,-1.282442748091603,1.6793893129770991,1.7709923664122136,4470,-102,0,98.2177734375,-17.27364388038561,0.0,False,,False,,,,,29
53.387,3.020694265999964,-0.92138671875,0.318115234375,0.01171875,-1.618320610687023,2.2900763358778624,0.6717557251908397,4451,-91,0,97.80029296875,-21.472360296703886,0.0,False,,False,,,,,29
53.387,3.0226906000000326,-0.92138671875,0.318115234375,0.01171875,-1.618320610687023,2.2900763358778624,0.6717557251908397,4451,-91,0,97.80029296875,-21.472360296703886,0.0,False,,False,,,,,29
53.387,3.024695637000036,-0.92138671875,0.318115234375,0.01171875,-1.618320610687023,2.2900763358778624,0.6717557251908397,4451,-91,0,97.80029296875,-21.472360296703886,0.0,False,,False,,,,,29
53.392,3.0266971559999547,-0.922119140625,0.339599609375,0.02294921875,3.3587786259541983,1.4351145038167938,-0.549618320610687,4439,-50,2,97.53662109375,-25.822307104631957,0.002628,False,,False,,,,,29
53.392,3.02869862,-0.922119140625,0.339599609375,0.02294921875,3.3587786259541983,1.4351145038167938,-0.549618320610687,4439,-50,2,97.53662109375,-25.822307104631957,0.002628,False,,False,,,,,29
53.397,3.030701360999956,-0.92724609375,0.33349609375,0.03369140625,2.564885496183206,1.129770992366412,-0.48854961832061067,4428,-59,5,97.294921875,-29.949364067038893,0.0065699999999999995,False,,False,,,,,29
53.397,3.0327031949999537,-0.92724609375,0.33349609375,0.03369140625,2.564885496183206,1.129770992366412,-0.48854961832061067,4428,-59,5,97.294921875,-29.949364067038893,0.0065699999999999995,False,,False,,,,,29
53.397,3.034700122000004,-0.92724609375,0.33349609375,0.03369140625,2.564885496183206,1.129770992366412,-0.48854961832061067,4428,-59,5,97.294921875,-29.949364067038893,0.0065699999999999995,False,,False,,,,,29
53.402,3.0367085479999787,-0.929443359375,0.325927734375,0.039306640625,0.3969465648854962,1.129770992366412,-0.33587786259541985,4412,-71,-5,96.943359375,-33.766371826497696,-0.0065699999999999995,False,,False,,,,,29
53.402,3.038706734000016,-0.929443359375,0.325927734375,0.039306640625,0.3969465648854962,1.129770992366412,-0.33587786259541985,4412,-71,-5,96.943359375,-33.766371826497696,-0.0065699999999999995,False,,False,,,,,29
53.407000000000004,3.0407080500000347,-0.9345703125,0.324462890625,0.036865234375,-0.6106870229007634,0.9770992366412213,-0.9465648854961831,4399,-59,2,96.65771484375,-37.36400969205179,0.002628,False,,False,,,,,29
53.407000000000004,3.042708532000006,-0.9345703125,0.324462890625,0.036865234375,-0.6106870229007634,0.9770992366412213,-0.9465648854961831,4399,-59,2,96.65771484375,-37.36400969205179,0.002628,False,,False,,,,,29
53.407000000000004,3.044710032000012,-0.9345703125,0.324462890625,0.036865234375,-0.6106870229007634,0.9770992366412213,-0.9465648854961831,4399,-59,2,96.65771484375,-37.36400969205179,0.002628,False,,False,,,,,29
53.412,3.0467120890000388,-0.945556640625,0.330322265625,0.03271484375,4.396946564885496,-1.129770992366412,-3.480916030534351,4396,-16,4,96.591796875,-40.550805594826535,0.005256,False,,False,,,,,29
53.412,3.0487733659999776,-0.945556640625,0.330322265625,0.03271484375,4.396946564885496,-1.129770992366412,-3.480916030534351,4396,-16,4,96.591796875,-40.550805594826535,0.005256,False,,False,,,,,29
53.417,3.0507750340000257,-0.9384765625,0.338623046875,0.0361328125,4.977099236641221,-1.7099236641221374,-3.4198473282442747,4397,6,5,96.61376953125,-42.91776490548264,0.0065699999999999995,False,,False,,,,,29
53.417,3.0527777380000316,-0.9384765625,0.338623046875,0.0361328125,4.977099236641221,-1.7099236641221374,-3.4198473282442747,4397,6,5,96.61376953125,-42.91776490548264,0.0065699999999999995,False,,False,,,,,29
53.417,3.05478064600004,-0.9384765625,0.338623046875,0.0361328125,4.977099236641221,-1.7099236641221374,-3.4198473282442747,4397,6,5,96.61376953125,-42.91776490548264,0.0065699999999999995,False,,False,,,,,29
53.422000000000004,3.0567774989999634,-0.939208984375,0.32861328125,0.035400390625,2.351145038167939,-1.8931297709923662,-3.450381679389313,4399,0,4,96.65771484375,-44.26168631375776,0.005256,False,,False,,,,,29
53.422000000000004,3.0587816099999827,-0.939208984375,0.32861328125,0.035400390625,2.351145038167939,-1.8931297709923662,-3.450381679389313,4399,0,4,96.65771484375,-44.26168631375776,0.005256,False,,False,,,,,29
53.427,3.06078236999997,-0.94189453125,0.332763671875,0.030517578125,1.5267175572519083,-1.5572519083969465,-3.145038167938931,4397,0,7,96.61376953125,-44.69783895514278,0.009198,False,,False,,,,,29
53.427,3.0627848709999625,-0.94189453125,0.332763671875,0.030517578125,1.5267175572519083,-1.5572519083969465,-3.145038167938931,4397,0,7,96.61376953125,-44.69783895514278,0.009198,False,,False,,,,,29
53.427,3.064786167999955,-0.94189453125,0.332763671875,0.030517578125,1.5267175572519083,-1.5572519083969465,-3.145038167938931,4397,0,7,96.61376953125,-44.69783895514278,0.009198,False,,False,,,,,29
53.432,3.0667872049999687,-0.93408203125,0.34228515625,0.01708984375,2.564885496183206,-2.595419847328244,-3.7251908396946565,4397,-5,5,96.61376953125,-44.44728378044264,0.0065699999999999995,False,,False,,,,,29
53.432,3.068788705999964,-0.93408203125,0.34228515625,0.01708984375,2.564885496183206,-2.595419847328244,-3.7251908396946565,4397,-5,5,96.61376953125,-44.44728378044264,0.0065699999999999995,False,,False,,,,,29
53.437,3.0707903549999855,-0.94287109375,0.34375,0.020751953125,3.480916030534351,-2.351145038167939,-3.8167938931297707,4397,0,-4,96.61376953125,-43.62545914652059,-0.005256,False,,False,,,,,29
53.437,3.0727923739999596,-0.94287109375,0.34375,0.020751953125,3.480916030534351,-2.351145038167939,-3.8167938931297707,4397,0,-4,96.61376953125,-43.62545914652059,-0.005256,False,,False,,,,,29
53.437,3.074793504000013,-0.94287109375,0.34375,0.020751953125,3.480916030534351,-2.351145038167939,-3.8167938931297707,4397,0,-4,96.61376953125,-43.62545914652059,-0.005256,False,,False,,,,,29
53.442,3.076794597000003,-0.9443359375,0.328125,0.0087890625,3.297709923664122,-2.351145038167939,-3.7557251908396947,4398,-3,4,96.6357421875,-42.28953697397105,0.005256,False,,False,,,,,29
53.442,3.078794597999945,-0.9443359375,0.328125,0.0087890625,3.297709923664122,-2.351145038167939,-3.7557251908396947,4398,-3,4,96.6357421875,-42.28953697397105,0.005256,False,,False,,,,,29
53.447,3.080796876000022,-0.938720703125,0.330078125,0.00244140625,2.045801526717557,-1.984732824427481,-4.091603053435114,4398,4,1,96.6357421875,-40.52665932108262,0.001314,False,,False,,,,,29
53.447,3.0829094130000385,-0.938720703125,0.330078125,0.00244140625,2.045801526717557,-1.984732824427481,-4.091603053435114,4398,4,1,96.6357421875,-40.52665932108262,0.001314,False,,False,,,,,29
53.447,3.0849058210000067,-0.938720703125,0.330078125,0.00244140625,2.045801526717557,-1.984732824427481,-4.091603053435114,4398,4,1,96.6357421875,-40.52665932108262,0.001314,False,,False,,,,,29
53.452,3.0869101549999414,-0.946044921875,0.340087890625,0.002197265625,2.778625954198473,-1.0076335877862594,-4.213740458015267,4397,-3,7,96.61376953125,-38.463711884975254,0.009198,False,,False,,,,,29
53.452,3.0889103590000104,-0.946044921875,0.340087890625,0.002197265625,2.778625954198473,-1.0076335877862594,-4.213740458015267,4397,-3,7,96.61376953125,-38.463711884975254,0.009198,False,,False,,,,,29
53.457,3.090911490000053,-0.94873046875,0.345458984375,-0.005126953125,2.9923664122137406,-1.0076335877862594,-4.427480916030534,4397,-5,5,96.61376953125,-36.21126807183292,0.0065699999999999995,False,,False,,,,,29
53.457,3.0929116940000085,-0.94873046875,0.345458984375,-0.005126953125,2.9923664122137406,-1.0076335877862594,-4.427480916030534,4397,-5,5,96.61376953125,-36.21126807183292,0.0065699999999999995,False,,False,,,,,29
53.457,3.094912602000022,-0.94873046875,0.345458984375,-0.005126953125,2.9923664122137406,-1.0076335877862594,-4.427480916030534,4397,-5,5,96.61376953125,-36.21126807183292,0.0065699999999999995,False,,False,,,,,29
53.462,3.096919529000047,-0.952880859375,0.351806640625,-0.001708984375,2.931297709923664,-0.7633587786259541,-5.190839694656488,4397,-5,3,96.61376953125,-33.81689631274839,0.003942,False,,False,,,,,29
53.462,3.0989195480000262,-0.952880859375,0.351806640625,-0.001708984375,2.931297709923664,-0.7633587786259541,-5.190839694656488,4397,-5,3,96.61376953125,-33.81689631274839,0.003942,False,,False,,,,,29
53.467,3.1009210669999447,-0.95556640625,0.3515625,0.007568359375,3.5725190839694654,0.21374045801526717,-5.007633587786259,4397,-3,3,96.61376953125,-31.322476096684664,0.003942,False,,False,,,,,29
53.467,3.102923290000035,-0.95556640625,0.3515625,0.007568359375,3.5725190839694654,0.21374045801526717,-5.007633587786259,4397,-3,3,96.61376953125,-31.322476096684664,0.003942,False,,False,,,,,29
53.467,3.1049251050000066,-0.95556640625,0.3515625,0.007568359375,3.5725190839694654,0.21374045801526717,-5.007633587786259,4397,-3,3,96.61376953125,-31.322476096684664,0.003942,False,,False,,,,,29
53.472,3.1069252720000122,-0.9599609375,0.357177734375,0.0029296875,3.4198473282442747,0.48854961832061067,-5.587786259541985,4397,-4,9,96.61376953125,-28.780433130549397,0.011826,False,,False,,,,,29
53.472,3.108927605999952,-0.9599609375,0.357177734375,0.0029296875,3.4198473282442747,0.48854961832061067,-5.587786259541985,4397,-4,9,96.61376953125,-28.780433130549397,0.011826,False,,False,,,,,29
53.477000000000004,3.1109288479999577,-0.95458984375,0.35546875,0.006103515625,4.091603053435114,0.6717557251908397,-5.526717557251908,4396,-6,7,96.591796875,-26.251262744549205,0.009198,False,,False,,,,,29
53.477000000000004,3.1129304219999767,-0.95458984375,0.35546875,0.006103515625,4.091603053435114,0.6717557251908397,-5.526717557251908,4396,-6,7,96.591796875,-26.251262744549205,0.009198,False,,False,,,,,29
53.477000000000004,3.1149321819999614,-0.95458984375,0.35546875,0.006103515625,4.091603053435114,0.6717557251908397,-5.526717557251908,4396,-6,7,96.591796875,-26.251262744549205,0.009198,False,,False,,,,,29
53.482,3.116933145999951,-0.953369140625,0.357177734375,0.002197265625,4.244274809160305,0.5801526717557252,-6.198473282442748,4397,-5,-1,96.61376953125,-23.769508444982726,-0.001314,False,,False,,,,,29
53.482,3.1189363319999757,-0.953369140625,0.357177734375,0.002197265625,4.244274809160305,0.5801526717557252,-6.198473282442748,4397,-5,-1,96.61376953125,-23.769508444982726,-0.001314,False,,False,,,,,29
53.487,3.12093688799996,-0.954345703125,0.362548828125,0.009521484375,4.305343511450381,1.099236641221374,-6.5038167938931295,4399,9,-2,96.65771484375,-21.29974014725867,-0.002628,False,,False,,,,,29
53.487,3.1229349809999576,-0.954345703125,0.362548828125,0.009521484375,4.305343511450381,1.099236641221374,-6.5038167938931295,4399,9,-2,96.65771484375,-21.29974014725867,-0.002628,False,,False,,,,,29
53.487,3.1249736669999493,-0.954345703125,0.362548828125,0.009521484375,4.305343511450381,1.099236641221374,-6.5038167938931295,4399,9,-2,96.65771484375,-21.29974014725867,-0.002628,False,,False,,,,,29
53.492000000000004,3.1269393710000486,-0.938232421875,0.369140625,0.017822265625,5.709923664122138,1.9541984732824427,-6.99236641221374,4397,4,5,96.61376953125,-18.875785167109125,0.0065699999999999995,False,,False,,,,,29
53.492000000000004,3.1289417790000016,-0.938232421875,0.369140625,0.017822265625,5.709923664122138,1.9541984732824427,-6.99236641221374,4397,4,5,96.61376953125,-18.875785167109125,0.0065699999999999995,False,,False,,,,,29
53.497,3.1309444649999705,-0.9365234375,0.364990234375,0.021728515625,6.5038167938931295,1.8015267175572518,-7.236641221374046,4398,2,7,96.6357421875,-16.588961797974207,0.009198,False,,False,,,,,29
53.497,3.1330568539999604,-0.9365234375,0.364990234375,0.021728515625,6.5038167938931295,1.8015267175572518,-7.236641221374046,4398,2,7,96.6357421875,-16.588961797974207,0.009198,False,,False,,,,,29
53.497,3.135057298999982,-0.9365234375,0.364990234375,0.021728515625,6.5038167938931295,1.8015267175572518,-7.236641221374046,4398,2,7,96.6357421875,-16.588961797974207,0.009198,False,,False,,,,,29
53.502,3.137089392000007,-0.935546875,0.362548828125,0.0244140625,6.748091603053435,1.7099236641221374,-7.145038167938931,4397,-3,3,96.61376953125,-14.4500710810835,0.003942,False,,False,,,,,29
53.502,3.1391021509999746,-0.935546875,0.362548828125,0.0244140625,6.748091603053435,1.7099236641221374,-7.145038167938931,4397,-3,3,96.61376953125,-14.4500710810835,0.003942,False,,False,,,,,29
53.507,3.1410917260000133,-0.932373046875,0.359375,0.028076171875,7.114503816793893,1.5877862595419847,-7.175572519083969,4397,0,-5,96.61376953125,-12.466012390160573,-0.0065699999999999995,False,,False,,,,,29
53.507,3.143092855999953,-0.932373046875,0.359375,0.028076171875,7.114503816793893,1.5877862595419847,-7.175572519083969,4397,0,-5,96.61376953125,-12.466012390160573,-0.0065699999999999995,False,,False,,,,,29
53.507,3.145177892999982,-0.932373046875,0.359375,0.028076171875,7.114503816793893,1.5877862595419847,-7.175572519083969,4397,0,-5,96.61376953125,-12.466012390160573,-0.0065699999999999995,False,,False,,,,,29
53.512,3.147178245999953,-0.92919921875,0.3525390625,0.032470703125,7.572519083969465,1.2519083969465647,-7.267175572519084,4396,0,-4,96.591796875,-10.656234337741378,-0.005256,False,,False,,,,,29
53.512,3.1491801350000515,-0.92919921875,0.3525390625,0.032470703125,7.572519083969465,1.2519083969465647,-7.267175572519084,4396,0,-4,96.591796875,-10.656234337741378,-0.005256,False,,False,,,,,29
53.517,3.1512903389999565,-0.922607421875,0.347900390625,0.029296875,7.8473282442748085,1.099236641221374,-7.267175572519084,4397,1,-1,96.61376953125,-9.002663004326076,-0.001314,False,,False,,,,,29
53.517,3.1534065419999706,-0.922607421875,0.347900390625,0.029296875,7.8473282442748085,1.099236641221374,-7.267175572519084,4397,1,-1,96.61376953125,-9.002663004326076,-0.001314,False,,False,,,,,29
53.517,3.1553984129999435,-0.922607421875,0.347900390625,0.029296875,7.8473282442748085,1.099236641221374,-7.267175572519084,4397,1,-1,96.61376953125,-9.002663004326076,-0.001314,False,,False,,,,,29
53.522,3.1574019319999707,-0.927490234375,0.344482421875,0.030029296875,7.694656488549618,1.0076335877862594,-7.572519083969465,4396,2,8,96.591796875,-7.487904312196254,0.010512,False,,False,,,,,29
53.522,3.159457505999967,-0.927490234375,0.344482421875,0.030029296875,7.694656488549618,1.0076335877862594,-7.572519083969465,4396,2,8,96.591796875,-7.487904312196254,0.010512,False,,False,,,,,29
53.527,3.1614576370000123,-0.92578125,0.349853515625,0.031494140625,8.122137404580153,1.282442748091603,-7.32824427480916,4393,-8,5,96.52587890625,-6.174963280912073,0.0065699999999999995,False,,False,,,,,29
53.527,3.1634602299999415,-0.92578125,0.349853515625,0.031494140625,8.122137404580153,1.282442748091603,-7.32824427480916,4393,-8,5,96.52587890625,-6.174963280912073,0.0065699999999999995,False,,False,,,,,29
53.527,3.1654585269999416,-0.92578125,0.349853515625,0.031494140625,8.122137404580153,1.282442748091603,-7.32824427480916,4393,-8,5,96.52587890625,-6.174963280912073,0.0065699999999999995,False,,False,,,,,29
53.532000000000004,3.1674635829999715,-0.923583984375,0.34619140625,0.029541015625,8.396946564885496,1.2519083969465647,-7.419847328244274,4392,-13,0,96.50390625,-5.1136628796195955,0.0,False,,False,,,,,29
53.532000000000004,3.169464195000046,-0.923583984375,0.34619140625,0.029541015625,8.396946564885496,1.2519083969465647,-7.419847328244274,4392,-13,0,96.50390625,-5.1136628796195955,0.0,False,,False,,,,,29
53.537,3.171466991999978,-0.921630859375,0.35009765625,0.024658203125,8.183206106870228,1.2213740458015268,-7.145038167938931,4387,-23,0,96.39404296875,-4.310237349837143,0.0,False,,False,,,,,29
53.537,3.173468400000047,-0.921630859375,0.35009765625,0.024658203125,8.183206106870228,1.2213740458015268,-7.145038167938931,4387,-23,0,96.39404296875,-4.310237349837143,0.0,False,,False,,,,,29
53.537,3.1754693450000104,-0.921630859375,0.35009765625,0.024658203125,8.183206106870228,1.2213740458015268,-7.145038167938931,4387,-23,0,96.39404296875,-4.310237349837143,0.0,False,,False,,,,,29
53.542,3.177470955999979,-0.920166015625,0.3564453125,0.02099609375,7.145038167938931,1.099236641221374,-6.5038167938931295,4378,-40,-3,96.1962890625,-3.893494862311271,-0.003942,False,,False,,,,,29
53.542,3.179473013000006,-0.920166015625,0.3564453125,0.02099609375,7.145038167938931,1.099236641221374,-6.5038167938931295,4378,-40,-3,96.1962890625,-3.893494862311271,-0.003942,False,,False,,,,,29
53.547000000000004,3.181475420999959,-0.91552734375,0.3681640625,0.020751953125,5.435114503816794,1.7099236641221374,-4.885496183206107,4353,-114,0,95.64697265625,-4.252150149525592,0.0,False,,False,,,,,29
53.547000000000004,3.1834750140000097,-0.91552734375,0.3681640625,0.020751953125,5.435114503816794,1.7099236641221374,-4.885496183206107,4353,-114,0,95.64697265625,-4.252150149525592,0.0,False,,False,,,,,29
53.547000000000004,3.1854766809999546,-0.91552734375,0.3681640625,0.020751953125,5.435114503816794,1.7099236641221374,-4.885496183206107,4353,-114,0,95.64697265625,-4.252150149525592,0.0,False,,False,,,,,29
53.552,3.1874781080000503,-0.904296875,0.374267578125,0.00634765625,-0.3053435114503817,3.1755725190839694,-2.351145038167939,4315,-182,0,94.81201171875,-6.034622522431922,0.0,False,,False,,,,,29
53.552,3.1894798490000085,-0.904296875,0.374267578125,0.00634765625,-0.3053435114503817,3.1755725190839694,-2.351145038167939,4315,-182,0,94.81201171875,-6.034622522431922,0.0,False,,False,,,,,29
53.557,3.1914813869999534,-0.904296875,0.41064453125,0.0,-1.3740458015267174,5.709923664122138,0.6106870229007634,4260,-249,1,93.603515625,-9.922286208348675,0.001314,False,,False,,,,,29
53.557,3.1934822759999406,-0.904296875,0.41064453125,0.0,-1.3740458015267174,5.709923664122138,0.6106870229007634,4260,-249,1,93.603515625,-9.922286208348675,0.001314,False,,False,,,,,29
53.557,3.1954831839999542,-0.904296875,0.41064453125,0.0,-1.3740458015267174,5.709923664122138,0.6106870229007634,4260,-249,1,93.603515625,-9.922286208348675,0.001314,False,,False,,,,,29
53.562,3.197485129000029,-0.906005859375,0.396240234375,-0.012451171875,-1.4961832061068703,5.038167938931298,0.183206106870229,4197,-280,1,92.21923828125,-16.39141550779084,0.001314,False,,False,,,,,29
53.562,3.199486110999942,-0.906005859375,0.396240234375,-0.012451171875,-1.4961832061068703,5.038167938931298,0.183206106870229,4197,-280,1,92.21923828125,-16.39141550779084,0.001314,False,,False,,,,,29
53.567,3.20148781599994,-0.889892578125,0.396484375,-0.021240234375,-1.2519083969465647,7.450381679389313,1.1603053435114503,4127,-324,-3,90.68115234375,-25.564607652015248,-0.003942,False,,False,,,,,29
53.567,3.203488761000017,-0.889892578125,0.396484375,-0.021240234375,-1.2519083969465647,7.450381679389313,1.1603053435114503,4127,-324,-3,90.68115234375,-25.564607652015248,-0.003942,False,,False,,,,,29
53.567,3.2054902429999856,-0.889892578125,0.396484375,-0.021240234375,-1.2519083969465647,7.450381679389313,1.1603053435114503,4127,-324,-3,90.68115234375,-25.564607652015248,-0.003942,False,,False,,,,,29
53.572,3.207491539999978,-0.9189453125,0.39404296875,-0.010986328125,1.2519083969465647,7.8473282442748085,1.0076335877862594,4055,-321,5,89.09912109375,-37.25067629432402,0.0065699999999999995,False,,False,,,,,29
53.572,3.209492337000029,-0.9189453125,0.39404296875,-0.010986328125,1.2519083969465647,7.8473282442748085,1.0076335877862594,4055,-321,5,89.09912109375,-37.25067629432402,0.0065699999999999995,False,,False,,,,,29
53.577,3.2117134830000396,-0.916748046875,0.394775390625,-0.004638671875,4.213740458015267,8.122137404580153,0.7633587786259541,3987,-297,6,87.60498046875,-50.98259530572974,0.007884,False,,False,,,,,29
53.577,3.214031388999956,-0.916748046875,0.394775390625,-0.004638671875,4.213740458015267,8.122137404580153,0.7633587786259541,3987,-297,6,87.60498046875,-50.98259530572974,0.007884,False,,False,,,,,29
53.582,3.2160357779999913,-0.916748046875,0.37353515625,0.0029296875,6.106870229007633,6.534351145038167,-0.366412213740458,3925,-274,1,86.24267578125,-66.03734504722917,0.001314,False,,False,,,,,29
53.582,3.218038371000034,-0.916748046875,0.37353515625,0.0029296875,6.106870229007633,6.534351145038167,-0.366412213740458,3925,-274,1,86.24267578125,-66.03734504722917,0.001314,False,,False,,,,,29
53.582,3.2200407980000136,-0.916748046875,0.37353515625,0.0029296875,6.106870229007633,6.534351145038167,-0.366412213740458,3925,-274,1,86.24267578125,-66.03734504722917,0.001314,False,,False,,,,,29
53.587,3.222039169000027,-0.911865234375,0.34521484375,0.0078125,6.748091603053435,6.473282442748092,-1.2213740458015268,3862,-274,-5,84.8583984375,-81.74271647935306,-0.0065699999999999995,False,,False,,,,,29
53.587,3.2240405950000195,-0.911865234375,0.34521484375,0.0078125,6.748091603053435,6.473282442748092,-1.2213740458015268,3862,-274,-5,84.8583984375,-81.74271647935306,-0.0065699999999999995,False,,False,,,,,29
53.592,3.2260435040000175,-0.923828125,0.359375,0.0234375,4.183206106870228,6.5038167938931295,-1.9541984732824427,3797,-282,0,83.43017578125,-97.73342585398383,0.0,False,,False,,,,,29
53.592,3.2280434670000204,-0.923828125,0.359375,0.0234375,4.183206106870228,6.5038167938931295,-1.9541984732824427,3797,-282,0,83.43017578125,-97.73342585398383,0.0,False,,False,,,,,29
53.592,3.2300495599999977,-0.923828125,0.359375,0.0234375,4.183206106870228,6.5038167938931295,-1.9541984732824427,3797,-282,0,83.43017578125,-97.73342585398383,0.0,False,,False,,,,,29
53.597,3.232049339000014,-0.924560546875,0.385009765625,0.0224609375,5.83206106870229,5.893129770992366,-2.381679389312977,3731,-289,0,81.97998046875,-113.82685544784854,0.0,False,,False,,,,,29
53.597,3.234048099000006,-0.924560546875,0.385009765625,0.0224609375,5.83206106870229,5.893129770992366,-2.381679389312977,3731,-289,0,81.97998046875,-113.82685544784854,0.0,False,,False,,,,,29
53.602000000000004,3.236150950000024,-0.8935546875,0.38818359375,0.0146484375,6.809160305343511,5.374045801526718,-2.778625954198473,3664,-297,3,80.5078125,-129.8527173815543,0.003942,False,,False,,,,,29
53.602000000000004,3.238129210000011,-0.8935546875,0.38818359375,0.0146484375,6.809160305343511,5.374045801526718,-2.778625954198473,3664,-297,3,80.5078125,-129.8527173815543,0.003942,False,,False,,,,,29
53.602000000000004,3.240134636999983,-0.8935546875,0.38818359375,0.0146484375,6.809160305343511,5.374045801526718,-2.778625954198473,3664,-297,3,80.5078125,-129.8527173815543,0.003942,False,,False,,,,,29
53.607,3.2421376739999914,-0.88720703125,0.365966796875,0.0078125,8.0,4.641221374045801,-4.6106870229007635,3601,-277,3,79.12353515625,-145.57393504565732,0.003942,False,,False,,,,,29
53.607,3.244139822999955,-0.88720703125,0.365966796875,0.0078125,8.0,4.641221374045801,-4.6106870229007635,3601,-277,3,79.12353515625,-145.57393504565732,0.003942,False,,False,,,,,29
53.612,3.246139527999958,-0.89453125,0.401611328125,0.016357421875,12.244274809160306,3.847328244274809,-5.190839694656488,3542,-253,0,77.8271484375,-160.63728962492124,0.0,False,,False,,,,,29
53.612,3.24813847300004,-0.89453125,0.401611328125,0.016357421875,12.244274809160306,3.847328244274809,-5.190839694656488,3542,-253,0,77.8271484375,-160.63728962492124,0.0,False,,False,,,,,29
53.612,3.2501434360000303,-0.89453125,0.401611328125,0.016357421875,12.244274809160306,3.847328244274809,-5.190839694656488,3542,-253,0,77.8271484375,-160.63728962492124,0.0,False,,False,,,,,29
53.617000000000004,3.252144158999954,-0.88427734375,0.396728515625,0.0009765625,12.549618320610687,2.381679389312977,-5.557251908396946,3486,-254,-4,76.5966796875,-174.69294072026423,-0.005256,False,,False,,,,,29
53.617000000000004,3.254141215000004,-0.88427734375,0.396728515625,0.0009765625,12.549618320610687,2.381679389312977,-5.557251908396946,3486,-254,-4,76.5966796875,-174.69294072026423,-0.005256,False,,False,,,,,29
53.622,3.2561469749999787,-0.86376953125,0.392578125,-0.004638671875,13.648854961832061,2.015267175572519,-6.198473282442748,3430,-246,-5,75.3662109375,-187.5421846560036,-0.0065699999999999995,False,,False,,,,,29
53.622,3.2581447530000105,-0.86376953125,0.392578125,-0.004638671875,13.648854961832061,2.015267175572519,-6.198473282442748,3430,-246,-5,75.3662109375,-187.5421846560036,-0.0065699999999999995,False,,False,,,,,29
53.622,3.2601500869999427,-0.86376953125,0.392578125,-0.004638671875,13.648854961832061,2.015267175572519,-6.198473282442748,3430,-246,-5,75.3662109375,-187.5421846560036,-0.0065699999999999995,False,,False,,,,,29
53.627,3.2621519030000172,-0.8564453125,0.41748046875,0.000244140625,14.595419847328243,1.7404580152671756,-5.435114503816794,3367,-274,0,73.98193359375,-199.2589655471882,0.0,False,,False,,,,,29
53.627,3.2641578289999416,-0.8564453125,0.41748046875,0.000244140625,14.595419847328243,1.7404580152671756,-5.435114503816794,3367,-274,0,73.98193359375,-199.2589655471882,0.0,False,,False,,,,,29
53.632,3.2662091070000088,-0.85791015625,0.40771484375,-0.006103515625,16.12213740458015,-0.24427480916030533,-5.679389312977099,3299,-297,-3,72.48779296875,-210.16032762097706,-0.003942,False,,False,,,,,29
53.632,3.2682189229999494,-0.85791015625,0.40771484375,-0.006103515625,16.12213740458015,-0.24427480916030533,-5.679389312977099,3299,-297,-3,72.48779296875,-210.16032762097706,-0.003942,False,,False,,,,,29
53.632,3.270213959999978,-0.85791015625,0.40771484375,-0.006103515625,16.12213740458015,-0.24427480916030533,-5.679389312977099,3299,-297,-3,72.48779296875,-210.16032762097706,-0.003942,False,,False,,,,,29
53.637,3.2722170719999895,-0.840576171875,0.408935546875,-0.004150390625,16.641221374045802,-0.42748091603053434,-5.1603053435114505,3228,-311,0,70.927734375,-220.53942282861064,0.0,False,,False,,,,,29
53.637,3.274214368999992,-0.840576171875,0.408935546875,-0.004150390625,16.641221374045802,-0.42748091603053434,-5.1603053435114505,3228,-311,0,70.927734375,-220.53942282861064,0.0,False,,False,,,,,29
53.642,3.2762186290000272,-0.82958984375,0.389404296875,-0.01318359375,15.81679389312977,-0.6106870229007634,-5.6183206106870225,3151,-339,-1,69.23583984375,-230.60149176393097,-0.001314,False,,False,,,,,29
53.642,3.27822005500002,-0.82958984375,0.389404296875,-0.01318359375,15.81679389312977,-0.6106870229007634,-5.6183206106870225,3151,-339,-1,69.23583984375,-230.60149176393097,-0.001314,False,,False,,,,,29
53.642,3.2802205010000307,-0.82958984375,0.389404296875,-0.01318359375,15.81679389312977,-0.6106870229007634,-5.6183206106870225,3151,-339,-1,69.23583984375,-230.60149176393097,-0.001314,False,,False,,,,,29
53.647,3.282308593000039,-0.8544921875,0.406005859375,-0.0107421875,17.16030534351145,-0.9465648854961831,-5.893129770992366,3071,-352,-2,67.47802734375,-240.53886635155294,-0.002628,False,,False,,,,,29
53.647,3.2843197969999665,-0.8544921875,0.406005859375,-0.0107421875,17.16030534351145,-0.9465648854961831,-5.893129770992366,3071,-352,-2,67.47802734375,-240.53886635155294,-0.002628,False,,False,,,,,29
53.652,3.2863235759999725,-0.841552734375,0.42626953125,-0.01513671875,18.80916030534351,-1.7404580152671756,-4.977099236641221,2985,-375,4,65.58837890625,-250.51436976257278,0.005256,False,,False,,,,,29
53.652,3.288320075999991,-0.841552734375,0.42626953125,-0.01513671875,18.80916030534351,-1.7404580152671756,-4.977099236641221,2985,-375,4,65.58837890625,-250.51436976257278,0.005256,False,,False,,,,,29
53.652,3.2903260770000315,-0.841552734375,0.42626953125,-0.01513671875,18.80916030534351,-1.7404580152671756,-4.977099236641221,2985,-375,4,65.58837890625,-250.51436976257278,0.005256,False,,False,,,,,29
53.657000000000004,3.292326669999966,-0.83447265625,0.4423828125,-0.01416015625,18.62595419847328,-1.5572519083969465,-3.450381679389313,2891,-421,11,63.52294921875,-260.7433401693828,0.014454,False,,False,,,,,29
53.657000000000004,3.2943249859999924,-0.83447265625,0.4423828125,-0.01416015625,18.62595419847328,-1.5572519083969465,-3.450381679389313,2891,-421,11,63.52294921875,-260.7433401693828,0.014454,False,,False,,,,,29
53.662,3.2963285050000195,-0.843994140625,0.434814453125,-0.0146484375,18.595419847328245,-2.4122137404580153,-3.6030534351145036,2789,-452,0,61.28173828125,-271.5137919799583,0.0,False,,False,,,,,29
53.662,3.2983305420000306,-0.843994140625,0.434814453125,-0.0146484375,18.595419847328245,-2.4122137404580153,-3.6030534351145036,2789,-452,0,61.28173828125,-271.5137919799583,0.0,False,,False,,,,,29
53.662,3.300328895000007,-0.843994140625,0.434814453125,-0.0146484375,18.595419847328245,-2.4122137404580153,-3.6030534351145036,2789,-452,0,61.28173828125,-271.5137919799583,0.0,False,,False,,,,,29
53.667,3.302334043999963,-0.859619140625,0.453125,-0.007568359375,18.68702290076336,-1.5572519083969465,-2.1374045801526718,2677,-497,5,58.82080078125,-283.1226636495721,0.0065699999999999995,False,,False,,,,,29
53.667,3.3043343030000187,-0.859619140625,0.453125,-0.007568359375,18.68702290076336,-1.5572519083969465,-2.1374045801526718,2677,-497,5,58.82080078125,-283.1226636495721,0.0065699999999999995,False,,False,,,,,29
53.672000000000004,3.306335970999953,-0.865966796875,0.4462890625,-0.015869140625,20.061068702290076,-2.5038167938931295,-1.3435114503816794,2559,-526,3,56.22802734375,-295.8064006457055,0.003942,False,,False,,,,,29
53.672000000000004,3.308337822999988,-0.865966796875,0.4462890625,-0.015869140625,20.061068702290076,-2.5038167938931295,-1.3435114503816794,2559,-526,3,56.22802734375,-295.8064006457055,0.003942,False,,False,,,,,29
53.672000000000004,3.3103393420000202,-0.865966796875,0.4462890625,-0.015869140625,20.061068702290076,-2.5038167938931295,-1.3435114503816794,2559,-526,3,56.22802734375,-295.8064006457055,0.003942,False,,False,,,,,29
53.677,3.3123407499999757,-0.874267578125,0.46044921875,-0.0185546875,20.15267175572519,-2.8702290076335877,-0.21374045801526717,2431,-567,-5,53.41552734375,-309.7155483105331,-0.0065699999999999995,False,,False,,,,,29
53.677,3.3143409550000342,-0.874267578125,0.46044921875,-0.0185546875,20.15267175572519,-2.8702290076335877,-0.21374045801526717,2431,-567,-5,53.41552734375,-309.7155483105331,-0.0065699999999999995,False,,False,,,,,29
53.682,3.316342437000003,-0.87255859375,0.45166015625,-0.02001953125,19.84732824427481,-3.847328244274809,0.549618320610687,2298,-599,-4,50.4931640625,-324.94247266094493,-0.005256,False,,False,,,,,29
53.682,3.3183446040000035,-0.87255859375,0.45166015625,-0.02001953125,19.84732824427481,-3.847328244274809,0.549618320610687,2298,-599,-4,50.4931640625,-324.94247266094493,-0.005256,False,,False,,,,,29
53.682,3.320346011999959,-0.87255859375,0.45166015625,-0.02001953125,19.84732824427481,-3.847328244274809,0.549618320610687,2298,-599,-4,50.4931640625,-324.94247266094493,-0.005256,False,,False,,,,,29
53.687,3.322347753000031,-0.870849609375,0.447998046875,-0.020751953125,19.297709923664122,-3.877862595419847,1.3435114503816794,2153,-631,2,47.30712890625,-341.56132615422143,0.002628,False,,False,,,,,29
53.687,3.324348420999968,-0.870849609375,0.447998046875,-0.020751953125,19.297709923664122,-3.877862595419847,1.3435114503816794,2153,-631,2,47.30712890625,-341.56132615422143,0.002628,False,,False,,,,,29
53.692,3.3263932539999814,-0.889404296875,0.445556640625,-0.018310546875,20.549618320610687,-5.374045801526718,2.717557251908397,2002,-671,4,43.9892578125,-359.6617701485908,0.005256,False,,False,,,,,29
53.692,3.328394440000011,-0.889404296875,0.445556640625,-0.018310546875,20.549618320610687,-5.374045801526718,2.717557251908397,2002,-671,4,43.9892578125,-359.6617701485908,0.005256,False,,False,,,,,29
53.692,3.3303960890000326,-0.889404296875,0.445556640625,-0.018310546875,20.549618320610687,-5.374045801526718,2.717557251908397,2002,-671,4,43.9892578125,-359.6617701485908,0.005256,False,,False,,,,,29
53.697,3.3323951820000275,-0.883056640625,0.430908203125,-0.022705078125,19.175572519083968,-6.351145038167939,3.8167938931297707,1841,-710,-3,40.45166015625,-379.2814884996678,-0.003942,False,,False,,,,,29
53.697,3.334396942000012,-0.883056640625,0.430908203125,-0.022705078125,19.175572519083968,-6.351145038167939,3.8167938931297707,1841,-710,-3,40.45166015625,-379.2814884996678,-0.003942,False,,False,,,,,29
53.702,3.3364011090000076,-0.884765625,0.40185546875,-0.0244140625,18.137404580152673,-7.0534351145038165,3.5725190839694654,1675,-734,-8,36.80419921875,-400.38227335072554,-0.010512,False,,False,,,,,29
53.702,3.3384025359999896,-0.884765625,0.40185546875,-0.0244140625,18.137404580152673,-7.0534351145038165,3.5725190839694654,1675,-734,-8,36.80419921875,-400.38227335072554,-0.010512,False,,False,,,,,29
53.702,3.3404048329999796,-0.884765625,0.40185546875,-0.0244140625,18.137404580152673,-7.0534351145038165,3.5725190839694654,1675,-734,-8,36.80419921875,-400.38227335072554,-0.010512,False,,False,,,,,29
53.707,3.3424053520000143,-0.890380859375,0.416748046875,-0.014892578125,19.63358778625954,-7.816793893129771,4.213740458015267,1504,-763,-6,33.046875,-422.815188424951,-0.007884,False,,False,,,,,29
53.707,3.3444030929999826,-0.890380859375,0.416748046875,-0.014892578125,19.63358778625954,-7.816793893129771,4.213740458015267,1504,-763,-6,33.046875,-422.815188424951,-0.007884,False,,False,,,,,29
53.712,3.3464072240000178,-0.880615234375,0.379638671875,-0.02392578125,18.35114503816794,-9.618320610687023,4.549618320610687,1325,-793,-1,29.11376953125,-446.4044176133736,-0.001314,False,,False,,,,,29
53.712,3.3484070389999943,-0.880615234375,0.379638671875,-0.02392578125,18.35114503816794,-9.618320610687023,4.549618320610687,1325,-793,-1,29.11376953125,-446.4044176133736,-0.001314,False,,False,,,,,29
53.712,3.350413910000043,-0.880615234375,0.379638671875,-0.02392578125,18.35114503816794,-9.618320610687023,4.549618320610687,1325,-793,-1,29.11376953125,-446.4044176133736,-0.001314,False,,False,,,,,29
53.717,3.352412021999953,-0.895263671875,0.37646484375,-0.0146484375,19.541984732824428,-10.931297709923664,4.396946564885496,1143,-796,-1,25.11474609375,-471.0019352823558,-0.001314,False,,False,,,,,29
53.717,3.3544132260000197,-0.895263671875,0.37646484375,-0.0146484375,19.541984732824428,-10.931297709923664,4.396946564885496,1143,-796,-1,25.11474609375,-471.0019352823558,-0.001314,False,,False,,,,,29
53.722,3.356417022999949,-0.868408203125,0.35693359375,-0.022216796875,19.175572519083968,-11.541984732824426,5.129770992366412,954,-828,0,20.9619140625,-496.4214635107126,0.0,False,,False,,,,,29
53.722,3.358414004999986,-0.868408203125,0.35693359375,-0.022216796875,19.175572519083968,-11.541984732824426,5.129770992366412,954,-828,0,20.9619140625,-496.4214635107126,0.0,False,,False,,,,,29
53.722,3.3604211540000506,-0.868408203125,0.35693359375,-0.022216796875,19.175572519083968,-11.541984732824426,5.129770992366412,954,-828,0,20.9619140625,-496.4214635107126,0.0,False,,False,,,,,29
53.727000000000004,3.3624196170000005,-0.88134765625,0.33447265625,-0.0146484375,18.62595419847328,-13.038167938931297,4.458015267175572,767,-831,-3,16.85302734375,-522.3996520434243,-0.003942,False,,False,,,,,29
53.727000000000004,3.3644198590000087,-0.88134765625,0.33447265625,-0.0146484375,18.62595419847328,-13.038167938931297,4.458015267175572,767,-831,-3,16.85302734375,-522.3996520434243,-0.003942,False,,False,,,,,29
53.732,3.366511507000041,-0.877685546875,0.321533203125,-0.01513671875,18.534351145038165,-15.022900763358779,4.702290076335878,575,-846,0,12.63427734375,-548.5965265721853,0.0,False,,False,,,,,29
53.732,3.3685238959999424,-0.877685546875,0.321533203125,-0.01513671875,18.534351145038165,-15.022900763358779,4.702290076335878,575,-846,0,12.63427734375,-548.5965265721853,0.0,False,,False,,,,,29
53.737,3.3705238039999585,-0.89892578125,0.318115234375,-0.01953125,17.98473282442748,-16.061068702290076,4.6106870229007635,380,-856,-4,8.349609375,-574.7720455778549,-0.005256,False,,False,,,,,29
53.737,3.3725289159999647,-0.89892578125,0.318115234375,-0.01953125,17.98473282442748,-16.061068702290076,4.6106870229007635,380,-856,-4,8.349609375,-574.7720455778549,-0.005256,False,,False,,,,,29
53.737,3.3745326759999443,-0.89892578125,0.318115234375,-0.01953125,17.98473282442748,-16.061068702290076,4.6106870229007635,380,-856,-4,8.349609375,-574.7720455778549,-0.005256,False,,False,,,,,29
53.742000000000004,3.376530064999997,-0.92138671875,0.32861328125,-0.02294921875,18.717557251908396,-16.97709923664122,4.396946564885496,188,-851,-4,4.130859375,-600.6778132988882,-0.005256,False,,False,,,,,29
53.742000000000004,3.3785284360000105,-0.92138671875,0.32861328125,-0.02294921875,18.717557251908396,-16.97709923664122,4.396946564885496,188,-851,-4,4.130859375,-600.6778132988882,-0.005256,False,,False,,,,,29
53.742000000000004,3.3805294000000004,-0.92138671875,0.32861328125,-0.02294921875,18.717557251908396,-16.97709923664122,4.396946564885496,188,-851,-4,4.130859375,-600.6778132988882,-0.005256,False,,False,,,,,29
53.747,3.382534418999967,-0.932373046875,0.324462890625,-0.035400390625,19.389312977099237,-17.16030534351145,4.854961832061068,-5,-859,0,-0.10986328125,-625.9506292484903,0.0,False,,False,,,,,29
53.747,3.3845308639999985,-0.932373046875,0.324462890625,-0.035400390625,19.389312977099237,-17.16030534351145,4.854961832061068,-5,-859,0,-0.10986328125,-625.9506292484903,0.0,False,,False,,,,,29
53.752,3.386537012999952,-0.99169921875,0.3134765625,-0.047119140625,20.335877862595417,-18.015267175572518,4.702290076335878,-198,-848,10,-4.3505859375,-650.3115136349103,0.013139999999999999,False,,False,,,,,29
53.752,3.388537606,-0.99169921875,0.3134765625,-0.047119140625,20.335877862595417,-18.015267175572518,4.702290076335878,-198,-848,10,-4.3505859375,-650.3115136349103,0.013139999999999999,False,,False,,,,,29
53.752,3.390538996000032,-0.99169921875,0.3134765625,-0.047119140625,20.335877862595417,-18.015267175572518,4.702290076335878,-198,-848,10,-4.3505859375,-650.3115136349103,0.013139999999999999,False,,False,,,,,29
53.757,3.392541069999993,-0.999755859375,0.304931640625,-0.04541015625,20.549618320610687,-17.435114503816795,5.557251908396946,-389,-845,-2,-8.54736328125,-673.5401205981594,-0.002628,False,,False,,,,,29
53.757,3.394542496999975,-0.999755859375,0.304931640625,-0.04541015625,20.549618320610687,-17.435114503816795,5.557251908396946,-389,-845,-2,-8.54736328125,-673.5401205981594,-0.002628,False,,False,,,,,29
53.762,3.396543274999999,-1.023681640625,0.27587890625,-0.05224609375,18.931297709923662,-17.00763358778626,5.9541984732824424,-579,-835,0,-12.72216796875,-695.4047212497987,0.0,False,,False,,,,,29
53.762,3.3985458869999547,-1.023681640625,0.27587890625,-0.05224609375,18.931297709923662,-17.00763358778626,5.9541984732824424,-579,-835,0,-12.72216796875,-695.4047212497987,0.0,False,,False,,,,,29
53.762,3.4005471100000477,-1.023681640625,0.27587890625,-0.05224609375,18.931297709923662,-17.00763358778626,5.9541984732824424,-579,-835,0,-12.72216796875,-695.4047212497987,0.0,False,,False,,,,,29
53.767,3.4025487029999795,-1.062744140625,0.286865234375,-0.042724609375,18.77862595419847,-16.610687022900763,6.595419847328244,-765,-814,0,-16.80908203125,-715.683329624352,0.0,False,,False,,,,,29
53.767,3.4045453700000508,-1.062744140625,0.286865234375,-0.042724609375,18.77862595419847,-16.610687022900763,6.595419847328244,-765,-814,0,-16.80908203125,-715.683329624352,0.0,False,,False,,,,,29
53.772,3.406549370999983,-1.06787109375,0.257080078125,-0.058349609375,15.48091603053435,-14.045801526717558,8.51908396946565,-950,-814,-6,-20.8740234375,-734.1812477951518,-0.007884,False,,False,,,,,29
53.772,3.4085497050000413,-1.06787109375,0.257080078125,-0.058349609375,15.48091603053435,-14.045801526717558,8.51908396946565,-950,-814,-6,-20.8740234375,-734.1812477951518,-0.007884,False,,False,,,,,29
53.772,3.410550482999952,-1.06787109375,0.257080078125,-0.058349609375,15.48091603053435,-14.045801526717558,8.51908396946565,-950,-814,-6,-20.8740234375,-734.1812477951518,-0.007884,False,,False,,,,,29
53.777,3.412552225000013,-1.09033203125,0.260009765625,-0.05517578125,16.213740458015266,-13.190839694656487,8.427480916030534,-1126,-777,2,-24.7412109375,-750.681696638663,0.002628,False,,False,,,,,29
53.777,3.41455987300003,-1.09033203125,0.260009765625,-0.05517578125,16.213740458015266,-13.190839694656487,8.427480916030534,-1126,-777,2,-24.7412109375,-750.681696638663,0.002628,False,,False,,,,,29
53.782000000000004,3.416565115000026,-1.072998046875,0.26416015625,-0.061279296875,15.358778625954198,-10.900763358778626,10.13740458015267,-1300,-760,4,-28.564453125,-764.9366358856664,0.005256,False,,False,,,,,29
53.782000000000004,3.4185695229999737,-1.072998046875,0.26416015625,-0.061279296875,15.358778625954198,-10.900763358778626,10.13740458015267,-1300,-760,4,-28.564453125,-764.9366358856664,0.005256,False,,False,,,,,29
53.782000000000004,3.420563097000013,-1.072998046875,0.26416015625,-0.061279296875,15.358778625954198,-10.900763358778626,10.13740458015267,-1300,-760,4,-28.564453125,-764.9366358856664,0.005256,False,,False,,,,,29
53.787,3.4225632090000317,-1.07568359375,0.2509765625,-0.06298828125,13.801526717557252,-9.557251908396946,10.442748091603052,-1465,-724,5,-32.18994140625,-776.7550252637968,0.0065699999999999995,False,,False,,,,,29
53.787,3.424565338999969,-1.07568359375,0.2509765625,-0.06298828125,13.801526717557252,-9.557251908396946,10.442748091603052,-1465,-724,5,-32.18994140625,-776.7550252637968,0.0065699999999999995,False,,False,,,,,29
53.792,3.4265677849999747,-1.06982421875,0.238037109375,-0.0595703125,16.244274809160306,-6.045801526717557,10.015267175572518,-1618,-676,3,-35.5517578125,-785.8530710669156,0.003942,False,,False,,,,,29
53.792,3.4285682480000332,-1.06982421875,0.238037109375,-0.0595703125,16.244274809160306,-6.045801526717557,10.015267175572518,-1618,-676,3,-35.5517578125,-785.8530710669156,0.003942,False,,False,,,,,29
53.792,3.430570174999957,-1.06982421875,0.238037109375,-0.0595703125,16.244274809160306,-6.045801526717557,10.015267175572518,-1618,-676,3,-35.5517578125,-785.8530710669156,0.003942,False,,False,,,,,29
53.797000000000004,3.4325713050000104,-1.07470703125,0.23095703125,-0.05615234375,15.786259541984732,-5.251908396946565,9.740458015267174,-1762,-631,0,-38.7158203125,-791.8734393577046,0.0,False,,False,,,,,29
53.797000000000004,3.4345736200000374,-1.07470703125,0.23095703125,-0.05615234375,15.786259541984732,-5.251908396946565,9.740458015267174,-1762,-631,0,-38.7158203125,-791.8734393577046,0.0,False,,False,,,,,29
53.802,3.4365744169999743,-1.0810546875,0.222412109375,-0.05615234375,15.84732824427481,-3.633587786259542,9.190839694656487,-1894,-568,8,-41.6162109375,-794.5615621914942,0.010512,False,,False,,,,,29
53.802,3.438575955000033,-1.0810546875,0.222412109375,-0.05615234375,15.84732824427481,-3.633587786259542,9.190839694656487,-1894,-568,8,-41.6162109375,-794.5615621914942,0.010512,False,,False,,,,,29
53.802,3.440578641000002,-1.0810546875,0.222412109375,-0.05615234375,15.84732824427481,-3.633587786259542,9.190839694656487,-1894,-568,8,-41.6162109375,-794.5615621914942,0.010512,False,,False,,,,,29
53.807,3.442577048999965,-1.097900390625,0.23193359375,-0.047607421875,16.85496183206107,-2.8091603053435112,8.610687022900763,-2012,-506,-2,-44.208984375,-793.6730153201381,-0.002628,False,,False,,,,,29
53.807,3.44457747499996,-1.097900390625,0.23193359375,-0.047607421875,16.85496183206107,-2.8091603053435112,8.610687022900763,-2012,-506,-2,-44.208984375,-793.6730153201381,-0.002628,False,,False,,,,,29
53.812,3.446584049999956,-1.090576171875,0.2138671875,-0.04052734375,15.603053435114504,-1.0381679389312977,8.0,-2119,-463,2,-46.56005859375,-788.991323111807,0.002628,False,,False,,,,,29
53.812,3.4485908469999913,-1.090576171875,0.2138671875,-0.04052734375,15.603053435114504,-1.0381679389312977,8.0,-2119,-463,2,-46.56005859375,-788.991323111807,0.002628,False,,False,,,,,29
53.812,3.450592496000013,-1.090576171875,0.2138671875,-0.04052734375,15.603053435114504,-1.0381679389312977,8.0,-2119,-463,2,-46.56005859375,-788.991323111807,0.002628,False,,False,,,,,29
53.817,3.452595792000011,-1.099853515625,0.228515625,-0.0390625,15.236641221374045,-0.7022900763358778,7.3893129770992365,-2215,-412,0,-48.66943359375,-780.4538687673704,0.0,False,,False,,,,,29
53.817,3.4545967750000273,-1.099853515625,0.228515625,-0.0390625,15.236641221374045,-0.7022900763358778,7.3893129770992365,-2215,-412,0,-48.66943359375,-780.4538687673704,0.0,False,,False,,,,,29
53.822,3.456597794000004,-1.07470703125,0.225830078125,-0.0361328125,14.65648854961832,-0.8549618320610687,6.8396946564885495,-2301,-368,-6,-50.55908203125,-768.1277503917308,-0.007884,False,,False,,,,,29
53.822,3.4585979429999725,-1.07470703125,0.225830078125,-0.0361328125,14.65648854961832,-0.8549618320610687,6.8396946564885495,-2301,-368,-6,-50.55908203125,-768.1277503917308,-0.007884,False,,False,,,,,29
53.822,3.460599073000026,-1.07470703125,0.225830078125,-0.0361328125,14.65648854961832,-0.8549618320610687,6.8396946564885495,-2301,-368,-6,-50.55908203125,-768.1277503917308,-0.007884,False,,False,,,,,29
53.827,3.462611165999988,-1.089111328125,0.23876953125,-0.025634765625,15.66412213740458,-1.5572519083969465,5.648854961832061,-2373,-314,-6,-52.14111328125,-752.092195439911,-0.007884,False,,False,,,,,29
53.827,3.4646020740000267,-1.089111328125,0.23876953125,-0.025634765625,15.66412213740458,-1.5572519083969465,5.648854961832061,-2373,-314,-6,-52.14111328125,-752.092195439911,-0.007884,False,,False,,,,,29
53.832,3.4666041299999506,-1.076416015625,0.221923828125,-0.0146484375,15.32824427480916,-2.931297709923664,3.847328244274809,-2436,-269,-4,-53.525390625,-732.4354380898595,-0.005256,False,,False,,,,,29
53.832,3.4686053899999933,-1.076416015625,0.221923828125,-0.0146484375,15.32824427480916,-2.931297709923664,3.847328244274809,-2436,-269,-4,-53.525390625,-732.4354380898595,-0.005256,False,,False,,,,,29
53.832,3.470606482999983,-1.076416015625,0.221923828125,-0.0146484375,15.32824427480916,-2.931297709923664,3.847328244274809,-2436,-269,-4,-53.525390625,-732.4354380898595,-0.005256,False,,False,,,,,29
53.837,3.4726081510000313,-1.07177734375,0.243408203125,-0.01171875,13.129770992366412,-2.564885496183206,4.458015267175572,-2490,-244,5,-54.7119140625,-709.3792992990842,0.0065699999999999995,False,,False,,,,,29
53.837,3.474609651000037,-1.07177734375,0.243408203125,-0.01171875,13.129770992366412,-2.564885496183206,4.458015267175572,-2490,-244,5,-54.7119140625,-709.3792992990842,0.0065699999999999995,False,,False,,,,,29
53.842,3.4766107629999397,-1.05029296875,0.246826171875,-0.020263671875,10.900763358778626,-3.2671755725190836,4.183206106870228,-2543,-232,1,-55.87646484375,-683.365632114514,0.001314,False,,False,,,,,29
53.842,3.478612708000014,-1.05029296875,0.246826171875,-0.020263671875,10.900763358778626,-3.2671755725190836,4.183206106870228,-2543,-232,1,-55.87646484375,-683.365632114514,0.001314,False,,False,,,,,29
53.842,3.480614930999991,-1.05029296875,0.246826171875,-0.020263671875,10.900763358778626,-3.2671755725190836,4.183206106870228,-2543,-232,1,-55.87646484375,-683.365632114514,0.001314,False,,False,,,,,29
53.847,3.482615987000031,-1.026123046875,0.22998046875,-0.035400390625,9.49618320610687,-2.259541984732824,3.1755725190839694,-2587,-189,-3,-56.84326171875,-654.934517444005,-0.003942,False,,False,,,,,29
53.847,3.484617821000029,-1.026123046875,0.22998046875,-0.035400390625,9.49618320610687,-2.259541984732824,3.1755725190839694,-2587,-189,-3,-56.84326171875,-654.934517444005,-0.003942,False,,False,,,,,29
53.852000000000004,3.486618988000032,-0.99853515625,0.254150390625,-0.040771484375,10.290076335877862,-3.0839694656488548,2.5038167938931295,-2626,-164,2,-57.7001953125,-624.5094596429183,0.002628,False,,False,,,,,29
53.852000000000004,3.488620914999956,-0.99853515625,0.254150390625,-0.040771484375,10.290076335877862,-3.0839694656488548,2.5038167938931295,-2626,-164,2,-57.7001953125,-624.5094596429183,0.002628,False,,False,,,,,29
53.857,3.4906219519999695,-0.99853515625,0.287353515625,-0.034912109375,8.946564885496183,-1.0381679389312977,4.366412213740458,-2664,-174,-12,-58.53515625,-592.5375568650812,-0.015768,False,,False,,,,,29
53.857,3.4926239720000467,-0.99853515625,0.287353515625,-0.034912109375,8.946564885496183,-1.0381679389312977,4.366412213740458,-2664,-174,-12,-58.53515625,-592.5375568650812,-0.015768,False,,False,,,,,29
53.857,3.4946263799999997,-0.99853515625,0.287353515625,-0.034912109375,8.946564885496183,-1.0381679389312977,4.366412213740458,-2664,-174,-12,-58.53515625,-592.5375568650812,-0.015768,False,,False,,,,,29
53.862,3.49662743600004,-0.97998046875,0.249267578125,-0.049072265625,6.1679389312977095,-1.3435114503816794,2.931297709923664,-2702,-154,2,-59.3701171875,-559.6224229043579,0.002628,False,,False,,,,,29
53.862,3.4986289180000085,-0.97998046875,0.249267578125,-0.049072265625,6.1679389312977095,-1.3435114503816794,2.931297709923664,-2702,-154,2,-59.3701171875,-559.6224229043579,0.002628,False,,False,,,,,29
53.867000000000004,3.500630104000038,-0.984130859375,0.28857421875,-0.0380859375,6.931297709923664,0.549618320610687,4.0,-2736,-146,3,-60.1171875,-526.3148876703622,0.003942,False,,False,,,,,29
53.867000000000004,3.50263169699997,-0.984130859375,0.28857421875,-0.0380859375,6.931297709923664,0.549618320610687,4.0,-2736,-146,3,-60.1171875,-526.3148876703622,0.003942,False,,False,,,,,29
53.867000000000004,3.504633975000047,-0.984130859375,0.28857421875,-0.0380859375,6.931297709923664,0.549618320610687,4.0,-2736,-146,3,-60.1171875,-526.3148876703622,0.003942,False,,False,,,,,29
53.872,3.5066502720000017,-0.983642578125,0.281005859375,-0.036376953125,9.190839694656487,-0.3969465648854962,1.5877862595419847,-2759,-100,-2,-60.62255859375,-492.8589621698092,-0.002628,False,,False,,,,,29
53.872,3.5086363650000294,-0.983642578125,0.281005859375,-0.036376953125,9.190839694656487,-0.3969465648854962,1.5877862595419847,-2759,-100,-2,-60.62255859375,-492.8589621698092,-0.002628,False,,False,,,,,29
53.877,3.510638513999993,-0.947265625,0.278564453125,-0.0419921875,7.603053435114504,0.24427480916030533,2.8396946564885495,-2781,-95,0,-61.10595703125,-459.33375288860873,0.0,False,,False,,,,,29
53.877,3.5126359040000352,-0.947265625,0.278564453125,-0.0419921875,7.603053435114504,0.24427480916030533,2.8396946564885495,-2781,-95,0,-61.10595703125,-459.33375288860873,0.0,False,,False,,,,,29
53.877,3.5146404600000096,-0.947265625,0.278564453125,-0.0419921875,7.603053435114504,0.24427480916030533,2.8396946564885495,-2781,-95,0,-61.10595703125,-459.33375288860873,0.0,False,,False,,,,,29
53.882,3.5166435529999944,-0.9384765625,0.26953125,-0.052734375,4.366412213740458,0.9465648854961831,2.778625954198473,-2803,-102,3,-61.58935546875,-426.0293083167382,0.003942,False,,False,,,,,29
53.882,3.51864083199996,-0.9384765625,0.26953125,-0.052734375,4.366412213740458,0.9465648854961831,2.778625954198473,-2803,-102,3,-61.58935546875,-426.0293083167382,0.003942,False,,False,,,,,29
53.882,3.520643517000053,-0.9384765625,0.26953125,-0.052734375,4.366412213740458,0.9465648854961831,2.778625954198473,-2803,-102,3,-61.58935546875,-426.0293083167382,0.003942,False,,False,,,,,29
53.887,3.5226458700000194,-0.9560546875,0.27880859375,-0.041015625,5.099236641221374,0.6717557251908397,1.4351145038167938,-2815,-63,0,-61.85302734375,-393.21708475530335,0.0,False,,False,,,,,29
53.887,3.524644778000038,-0.9560546875,0.27880859375,-0.041015625,5.099236641221374,0.6717557251908397,1.4351145038167938,-2815,-63,0,-61.85302734375,-393.21708475530335,0.0,False,,False,,,,,29
53.892,3.5267262219999793,-0.927490234375,0.287353515625,-0.0419921875,6.5038167938931295,0.5801526717557252,2.015267175572519,-2828,-52,-2,-62.138671875,-360.9898850270091,-0.002628,False,,False,,,,,29
53.892,3.528859796000006,-0.927490234375,0.287353515625,-0.0419921875,6.5038167938931295,0.5801526717557252,2.015267175572519,-2828,-52,-2,-62.138671875,-360.9898850270091,-0.002628,False,,False,,,,,29
53.897,3.5308642779999673,-0.91650390625,0.287109375,-0.04638671875,3.969465648854962,1.4045801526717556,2.8702290076335877,-2845,-75,0,-62.51220703125,-329.65566076112344,0.0,False,,False,,,,,29
53.897,3.5328631669999595,-0.91650390625,0.287109375,-0.04638671875,3.969465648854962,1.4045801526717556,2.8702290076335877,-2845,-75,0,-62.51220703125,-329.65566076112344,0.0,False,,False,,,,,29
53.897,3.5348643160000393,-0.91650390625,0.287109375,-0.04638671875,3.969465648854962,1.4045801526717556,2.8702290076335877,-2845,-75,0,-62.51220703125,-329.65566076112344,0.0,False,,False,,,,,29
53.902,3.5368658910000477,-0.91845703125,0.28125,-0.048583984375,2.5038167938931295,2.259541984732824,2.778625954198473,-2864,-82,-4,-62.9296875,-299.69802100916587,-0.005256,False,,False,,,,,29
53.902,3.53886722499999,-0.91845703125,0.28125,-0.048583984375,2.5038167938931295,2.259541984732824,2.778625954198473,-2864,-82,-4,-62.9296875,-299.69802100916587,-0.005256,False,,False,,,,,29
53.907000000000004,3.540906521000011,-0.9296875,0.28955078125,-0.04638671875,4.244274809160305,1.9236641221374045,2.351145038167939,-2879,-57,-3,-63.25927734375,-271.3904830445334,-0.003942,False,,False,,,,,29
53.907000000000004,3.542870410999967,-0.9296875,0.28955078125,-0.04638671875,4.244274809160305,1.9236641221374045,2.351145038167939,-2879,-57,-3,-63.25927734375,-271.3904830445334,-0.003942,False,,False,,,,,29
53.907000000000004,3.544872059999989,-0.9296875,0.28955078125,-0.04638671875,4.244274809160305,1.9236641221374045,2.351145038167939,-2879,-57,-3,-63.25927734375,-271.3904830445334,-0.003942,False,,False,,,,,29
53.912,3.54687259800005,-0.908203125,0.288330078125,-0.044189453125,4.641221374045801,2.045801526717557,3.3587786259541983,-2893,-55,-5,-63.56689453125,-244.76305441870872,-0.0065699999999999995,False,,False,,,,,29
53.912,3.5488750609999897,-0.908203125,0.288330078125,-0.044189453125,4.641221374045801,2.045801526717557,3.3587786259541983,-2893,-55,-5,-63.56689453125,-244.76305441870872,-0.0065699999999999995,False,,False,,,,,29
53.917,3.5508815619999723,-0.895263671875,0.283447265625,-0.048583984375,0.9465648854961831,3.7251908396946565,5.068702290076335,-2914,-101,-1,-64.0283203125,-219.94384236020989,-0.001314,False,,False,,,,,29
53.917,3.5528823769999462,-0.895263671875,0.283447265625,-0.048583984375,0.9465648854961831,3.7251908396946565,5.068702290076335,-2914,-101,-1,-64.0283203125,-219.94384236020989,-0.001314,False,,False,,,,,29
53.917,3.554883692999965,-0.895263671875,0.283447265625,-0.048583984375,0.9465648854961831,3.7251908396946565,5.068702290076335,-2914,-101,-1,-64.0283203125,-219.94384236020989,-0.001314,False,,False,,,,,29
53.922000000000004,3.5568849899999577,-0.903564453125,0.285888671875,-0.05126953125,-0.2748091603053435,4.305343511450381,4.641221374045801,-2940,-113,0,-64.599609375,-197.2844658261906,0.0,False,,False,,,,,29
53.922000000000004,3.55888647200004,-0.903564453125,0.285888671875,-0.05126953125,-0.2748091603053435,4.305343511450381,4.641221374045801,-2940,-113,0,-64.599609375,-197.2844658261906,0.0,False,,False,,,,,29
53.927,3.5608881020000354,-0.91015625,0.30908203125,-0.041015625,1.7709923664122136,4.7328244274809155,4.885496183206107,-2967,-113,-3,-65.19287109375,-177.04800481023713,-0.003942,False,,False,,,,,29
53.927,3.563024712000015,-0.91015625,0.30908203125,-0.041015625,1.7709923664122136,4.7328244274809155,4.885496183206107,-2967,-113,-3,-65.19287109375,-177.04800481023713,-0.003942,False,,False,,,,,29
53.927,3.56494941699998,-0.91015625,0.30908203125,-0.041015625,1.7709923664122136,4.7328244274809155,4.885496183206107,-2967,-113,-3,-65.19287109375,-177.04800481023713,-0.003942,False,,False,,,,,29
53.932,3.566950232999943,-0.89111328125,0.270751953125,-0.049072265625,1.0381679389312977,5.435114503816794,5.221374045801526,-3000,-141,-3,-65.91796875,-159.34002697944229,-0.003942,False,,False,,,,,29
53.932,3.568950936999954,-0.89111328125,0.270751953125,-0.049072265625,1.0381679389312977,5.435114503816794,5.221374045801526,-3000,-141,-3,-65.91796875,-159.34002697944229,-0.003942,False,,False,,,,,29
53.937,3.5709532710000076,-0.911376953125,0.291748046875,-0.037353515625,3.32824427480916,6.1679389312977095,6.076335877862595,-3027,-118,0,-66.51123046875,-144.1167886488421,0.0,False,,False,,,,,29
53.937,3.572949716000039,-0.911376953125,0.291748046875,-0.037353515625,3.32824427480916,6.1679389312977095,6.076335877862595,-3027,-118,0,-66.51123046875,-144.1167886488421,0.0,False,,False,,,,,29
53.937,3.5749525689999473,-0.911376953125,0.291748046875,-0.037353515625,3.32824427480916,6.1679389312977095,6.076335877862595,-3027,-118,0,-66.51123046875,-144.1167886488421,0.0,False,,False,,,,,29
53.942,3.576956291999977,-0.880859375,0.267578125,-0.044677734375,1.7709923664122136,6.351145038167939,7.145038167938931,-3056,-132,-6,-67.1484375,-131.13060114901347,-0.007884,False,,False,,,,,29
53.942,3.5789589769999566,-0.880859375,0.267578125,-0.044677734375,1.7709923664122136,6.351145038167939,7.145038167938931,-3056,-132,-6,-67.1484375,-131.13060114901347,-0.007884,False,,False,,,,,29
53.947,3.580958162999991,-0.907470703125,0.25,-0.0400390625,1.099236641221374,5.648854961832061,6.65648854961832,-3085,-119,-2,-67.78564453125,-120.1735277133136,-0.002628,False,,False,,,,,29
53.947,3.5829585159999624,-0.907470703125,0.25,-0.0400390625,1.099236641221374,5.648854961832061,6.65648854961832,-3085,-119,-2,-67.78564453125,-120.1735277133136,-0.002628,False,,False,,,,,29
53.947,3.584959830999992,-0.907470703125,0.25,-0.0400390625,1.099236641221374,5.648854961832061,6.65648854961832,-3085,-119,-2,-67.78564453125,-120.1735277133136,-0.002628,False,,False,,,,,29
53.952,3.5869633690000455,-0.875,0.249267578125,-0.0458984375,-1.984732824427481,7.541984732824427,8.793893129770993,-3117,-148,1,-68.48876953125,-111.15350142466161,0.001314,False,,False,,,,,29
53.952,3.5889634989999877,-0.875,0.249267578125,-0.0458984375,-1.984732824427481,7.541984732824427,8.793893129770993,-3117,-148,1,-68.48876953125,-111.15350142466161,0.001314,False,,False,,,,,29
53.957,3.590964148000012,-0.91259765625,0.257080078125,-0.0380859375,-0.48854961832061067,6.687022900763359,7.419847328244274,-3148,-124,0,-69.169921875,-103.96538407800625,0.0,False,,False,,,,,29
53.957,3.592962797000041,-0.91259765625,0.257080078125,-0.0380859375,-0.48854961832061067,6.687022900763359,7.419847328244274,-3148,-124,0,-69.169921875,-103.96538407800625,0.0,False,,False,,,,,29
53.957,3.594967722999968,-0.91259765625,0.257080078125,-0.0380859375,-0.48854961832061067,6.687022900763359,7.419847328244274,-3148,-124,0,-69.169921875,-103.96538407800625,0.0,False,,False,,,,,29
53.962,3.596967556999971,-0.891357421875,0.25830078125,-0.038818359375,1.9236641221374045,6.870229007633587,8.030534351145038,-3174,-107,-5,-69.7412109375,-98.35137720086807,-0.0065699999999999995,False,,False,,,,,29
53.962,3.598970668999982,-0.891357421875,0.25830078125,-0.038818359375,1.9236641221374045,6.870229007633587,8.030534351145038,-3174,-107,-5,-69.7412109375,-98.35137720086807,-0.0065699999999999995,False,,False,,,,,29
53.967,3.6009727250000196,-0.89794921875,0.225341796875,-0.03125,2.4122137404580153,4.763358778625954,6.625954198473282,-3190,-65,-1,-70.0927734375,-93.802287861093,-0.001314,False,,False,,,,,29
53.967,3.602970910999943,-0.89794921875,0.225341796875,-0.03125,2.4122137404580153,4.763358778625954,6.625954198473282,-3190,-65,-1,-70.0927734375,-93.802287861093,-0.001314,False,,False,,,,,29
53.967,3.6049752449999914,-0.89794921875,0.225341796875,-0.03125,2.4122137404580153,4.763358778625954,6.625954198473282,-3190,-65,-1,-70.0927734375,-93.802287861093,-0.001314,False,,False,,,,,29
53.972,3.60697672699996,-0.927978515625,0.201904296875,-0.011474609375,7.175572519083969,2.229007633587786,3.9389312977099236,-3192,-2,2,-70.13671875,-89.58992124358512,0.002628,False,,False,,,,,29
53.972,3.6089763200000107,-0.927978515625,0.201904296875,-0.011474609375,7.175572519083969,2.229007633587786,3.9389312977099236,-3192,-2,2,-70.13671875,-89.58992124358512,0.002628,False,,False,,,,,29
53.977000000000004,3.6109801540000035,-0.912109375,0.18603515625,-0.01025390625,5.374045801526718,1.7099236641221374,4.244274809160305,-3186,20,-2,-70.0048828125,-84.98835885260578,-0.002628,False,,False,,,,,29
53.977000000000004,3.6129788030000327,-0.912109375,0.18603515625,-0.01025390625,5.374045801526718,1.7099236641221374,4.244274809160305,-3186,20,-2,-70.0048828125,-84.98835885260578,-0.002628,False,,False,,,,,29
53.977000000000004,3.614984265999965,-0.912109375,0.18603515625,-0.01025390625,5.374045801526718,1.7099236641221374,4.244274809160305,-3186,20,-2,-70.0048828125,-84.98835885260578,-0.002628,False,,False,,,,,29
53.982,3.6169813230000045,-0.904541015625,0.19921875,-0.0107421875,1.5267175572519083,2.6564885496183206,5.435114503816794,-3185,-3,1,-69.98291015625,-79.72974066026181,0.001314,False,,False,,,,,29
53.982,3.618986267999958,-0.904541015625,0.19921875,-0.0107421875,1.5267175572519083,2.6564885496183206,5.435114503816794,-3185,-3,1,-69.98291015625,-79.72974066026181,0.001314,False,,False,,,,,29
53.987,3.6210813789999747,-0.90576171875,0.213623046875,-0.026611328125,-0.5801526717557252,3.0534351145038165,5.343511450381679,-3185,-4,0,-69.98291015625,-74.04497434615382,0.0,False,,False,,,,,29
53.987,3.6229889170000433,-0.90576171875,0.213623046875,-0.026611328125,-0.5801526717557252,3.0534351145038165,5.343511450381679,-3185,-4,0,-69.98291015625,-74.04497434615382,0.0,False,,False,,,,,29
53.987,3.624990120999996,-0.90576171875,0.213623046875,-0.026611328125,-0.5801526717557252,3.0534351145038165,5.343511450381679,-3185,-4,0,-69.98291015625,-74.04497434615382,0.0,False,,False,,,,,29
53.992000000000004,3.626991103000023,-0.891357421875,0.244384765625,-0.034423828125,1.4045801526717556,3.2671755725190836,6.717557251908397,-3185,1,0,-69.98291015625,-68.19720744425804,0.0,False,,False,,,,,29
53.992000000000004,3.6289927340000077,-0.891357421875,0.244384765625,-0.034423828125,1.4045801526717556,3.2671755725190836,6.717557251908397,-3185,1,0,-69.98291015625,-68.19720744425804,0.0,False,,False,,,,,29
53.997,3.6309968079999635,-0.890869140625,0.23779296875,-0.028564453125,1.7099236641221374,3.145038167938931,7.297709923664121,-3185,4,-2,-69.98291015625,-62.313610030886124,-0.002628,False,,False,,,,,29
53.997,3.632998771999951,-0.890869140625,0.23779296875,-0.028564453125,1.7099236641221374,3.145038167938931,7.297709923664121,-3185,4,-2,-69.98291015625,-62.313610030886124,-0.002628,False,,False,,,,,29
53.997,3.634999050000033,-0.890869140625,0.23779296875,-0.028564453125,1.7099236641221374,3.145038167938931,7.297709923664121,-3185,4,-2,-69.98291015625,-62.313610030886124,-0.002628,False,,False,,,,,29
54.002,3.6370014950000495,-0.88623046875,0.2265625,-0.02783203125,1.3129770992366412,3.450381679389313,7.816793893129771,-3185,0,-1,-69.98291015625,-56.48525003472442,-0.001314,False,,False,,,,,29
54.002,3.6390011439999626,-0.88623046875,0.2265625,-0.02783203125,1.3129770992366412,3.450381679389313,7.816793893129771,-3185,0,-1,-69.98291015625,-56.48525003472442,-0.001314,False,,False,,,,,29
54.007,3.641002792999984,-0.89208984375,0.217529296875,-0.02490234375,0.916030534351145,3.6946564885496183,8.213740458015266,-3185,0,-2,-69.98291015625,-50.787567645355686,-0.002628,False,,False,,,,,29
54.007,3.6430018490000293,-0.89208984375,0.217529296875,-0.02490234375,0.916030534351145,3.6946564885496183,8.213740458015266,-3185,0,-2,-69.98291015625,-50.787567645355686,-0.002628,False,,False,,,,,29
54.007,3.6450043309999955,-0.89208984375,0.217529296875,-0.02490234375,0.916030534351145,3.6946564885496183,8.213740458015266,-3185,0,-2,-69.98291015625,-50.787567645355686,-0.002628,False,,False,,,,,29
54.012,3.6470065170000225,-0.8984375,0.21484375,-0.02294921875,0.3053435114503817,3.3893129770992365,8.458015267175572,-3184,3,-1,-69.9609375,-45.265911321979225,-0.001314,False,,False,,,,,29
54.012,3.6490093319999914,-0.8984375,0.21484375,-0.02294921875,0.3053435114503817,3.3893129770992365,8.458015267175572,-3184,3,-1,-69.9609375,-45.265911321979225,-0.001314,False,,False,,,,,29
54.017,3.6510074259999783,-0.90478515625,0.216552734375,-0.0205078125,0.3969465648854962,3.145038167938931,8.610687022900763,-3183,-2,-7,-69.93896484375,-39.93978032855714,-0.009198,False,,False,,,,,29
54.017,3.6530070000000023,-0.90478515625,0.216552734375,-0.0205078125,0.3969465648854962,3.145038167938931,8.610687022900763,-3183,-2,-7,-69.93896484375,-39.93978032855714,-0.009198,False,,False,,,,,29
54.017,3.6550113710000005,-0.90478515625,0.216552734375,-0.0205078125,0.3969465648854962,3.145038167938931,8.610687022900763,-3183,-2,-7,-69.93896484375,-39.93978032855714,-0.009198,False,,False,,,,,29
54.022,3.6570123909999666,-0.909912109375,0.213623046875,-0.021240234375,0.2748091603053435,3.236641221374046,8.732824427480915,-3182,7,1,-69.9169921875,-34.83858216179358,0.001314,False,,False,,,,,29
54.022,3.6590154650000386,-0.909912109375,0.213623046875,-0.021240234375,0.2748091603053435,3.236641221374046,8.732824427480915,-3182,7,1,-69.9169921875,-34.83858216179358,0.001314,False,,False,,,,,29
54.027,3.6610156880000204,-0.912109375,0.21435546875,-0.023681640625,-0.366412213740458,2.931297709923664,8.82442748091603,-3181,0,-1,-69.89501953125,-29.99959329069189,-0.001314,False,,False,,,,,29
54.027,3.6630172440000024,-0.912109375,0.21435546875,-0.023681640625,-0.366412213740458,2.931297709923664,8.82442748091603,-3181,0,-1,-69.89501953125,-29.99959329069189,-0.001314,False,,False,,,,,29
54.027,3.6650173750000477,-0.912109375,0.21435546875,-0.023681640625,-0.366412213740458,2.931297709923664,8.82442748091603,-3181,0,-1,-69.89501953125,-29.99959329069189,-0.001314,False,,False,,,,,29
54.032000000000004,3.6670185420000507,-0.9228515625,0.21337890625,-0.022705078125,-0.9770992366412213,2.595419847328244,8.702290076335878,-3180,2,2,-69.873046875,-25.450222336888757,0.002628,False,,False,,,,,29
54.032000000000004,3.669020004999993,-0.9228515625,0.21337890625,-0.022705078125,-0.9770992366412213,2.595419847328244,8.702290076335878,-3180,2,2,-69.873046875,-25.450222336888757,0.002628,False,,False,,,,,29
54.037,3.6710217649999777,-0.931640625,0.211181640625,-0.0224609375,-0.7022900763358778,2.045801526717557,8.48854961832061,-3181,-2,0,-69.89501953125,-21.241050865264558,0.0,False,,False,,,,,29
54.037,3.6730230069999834,-0.931640625,0.211181640625,-0.0224609375,-0.7022900763358778,2.045801526717557,8.48854961832061,-3181,-2,0,-69.89501953125,-21.241050865264558,0.0,False,,False,,,,,29
54.037,3.67502682199995,-0.931640625,0.211181640625,-0.0224609375,-0.7022900763358778,2.045801526717557,8.48854961832061,-3181,-2,0,-69.89501953125,-21.241050865264558,0.0,False,,False,,,,,29
54.042,3.677028322999945,-0.938232421875,0.20654296875,-0.0166015625,-0.7022900763358778,1.7099236641221374,8.091603053435113,-3180,2,-7,-69.873046875,-17.40949645712496,-0.009198,False,,False,,,,,29
54.042,3.6790286750000405,-0.938232421875,0.20654296875,-0.0166015625,-0.7022900763358778,1.7099236641221374,8.091603053435113,-3180,2,-7,-69.873046875,-17.40949645712496,-0.009198,False,,False,,,,,29
54.047000000000004,3.681029231000025,-0.946533203125,0.20556640625,-0.017333984375,-1.129770992366412,1.3435114503816794,7.877862595419847,-3180,-1,-3,-69.873046875,-13.933667212234543,-0.003942,False,,False,,,,,29
54.047000000000004,3.6830280469999934,-0.946533203125,0.20556640625,-0.017333984375,-1.129770992366412,1.3435114503816794,7.877862595419847,-3180,-1,-3,-69.873046875,-13.933667212234543,-0.003942,False,,False,,,,,29
54.047000000000004,3.6850313989999677,-0.946533203125,0.20556640625,-0.017333984375,-1.129770992366412,1.3435114503816794,7.877862595419847,-3180,-1,-3,-69.873046875,-13.933667212234543,-0.003942,False,,False,,,,,29
54.052,3.687034807000032,-0.948486328125,0.20361328125,-0.017333984375,-1.7404580152671756,0.9770992366412213,7.3893129770992365,-3180,-2,-2,-69.873046875,-10.805997933007449,-0.002628,False,,False,,,,,29
54.052,3.689035733999958,-0.948486328125,0.20361328125,-0.017333984375,-1.7404580152671756,0.9770992366412213,7.3893129770992365,-3180,-2,-2,-69.873046875,-10.805997933007449,-0.002628,False,,False,,,,,29
54.057,3.6910370309999507,-0.9453125,0.20556640625,-0.020263671875,-3.847328244274809,1.4961832061068703,7.755725190839694,-3180,-5,3,-69.873046875,-8.031027069384054,0.003942,False,,False,,,,,29
54.057,3.6930364940000118,-0.9453125,0.20556640625,-0.020263671875,-3.847328244274809,1.4961832061068703,7.755725190839694,-3180,-5,3,-69.873046875,-8.031027069384054,0.003942,False,,False,,,,,29
54.057,3.6950393839999833,-0.9453125,0.20556640625,-0.020263671875,-3.847328244274809,1.4961832061068703,7.755725190839694,-3180,-5,3,-69.873046875,-8.031027069384054,0.003942,False,,False,,,,,29
54.062,3.6970542179999484,-0.959228515625,0.20751953125,-0.028076171875,-4.244274809160305,1.0381679389312977,7.572519083969465,-3179,3,3,-69.85107421875,-5.575613497861235,0.003942,False,,False,,,,,29
54.062,3.699043569999958,-0.959228515625,0.20751953125,-0.028076171875,-4.244274809160305,1.0381679389312977,7.572519083969465,-3179,3,3,-69.85107421875,-5.575613497861235,0.003942,False,,False,,,,,29
54.067,3.7010453120000193,-0.955078125,0.2080078125,-0.0361328125,-3.3893129770992365,0.2748091603053435,6.717557251908397,-3180,-6,-1,-69.873046875,-3.423298331584012,-0.001314,False,,False,,,,,29
54.067,3.7030504970000493,-0.955078125,0.2080078125,-0.0361328125,-3.3893129770992365,0.2748091603053435,6.717557251908397,-3180,-6,-1,-69.873046875,-3.423298331584012,-0.001314,False,,False,,,,,29
54.072,3.7066123910000215,-0.96728515625,0.20458984375,-0.03564453125,-3.969465648854962,0.0916030534351145,5.557251908396946,-3178,3,1,-69.8291015625,-1.555911588911415,0.001314,False,,False,,,,,29
54.072,3.7091909609999902,-0.96728515625,0.20458984375,-0.03564453125,-3.969465648854962,0.0916030534351145,5.557251908396946,-3178,3,1,-69.8291015625,-1.555911588911415,0.001314,False,,False,,,,,29
54.077,3.711542680999969,-0.979736328125,0.205322265625,-0.03857421875,-2.687022900763359,0.030534351145038167,4.641221374045801,-3178,0,0,-69.8291015625,0.07771717059920968,0.0,False,,False,,,,,29
54.077,3.7135432369999535,-0.979736328125,0.205322265625,-0.03857421875,-2.687022900763359,0.030534351145038167,4.641221374045801,-3178,0,0,-69.8291015625,0.07771717059920968,0.0,False,,False,,,,,29
54.082,3.71554564500002,-0.974853515625,0.20458984375,-0.0390625,-3.2061068702290076,-0.2748091603053435,3.7251908396946565,-3177,4,-11,-69.80712890625,1.491982103449715,-0.014454,False,,False,,,,,29
54.082,3.718747893999989,-0.974853515625,0.20458984375,-0.0390625,-3.2061068702290076,-0.2748091603053435,3.7251908396946565,-3177,4,-11,-69.80712890625,1.491982103449715,-0.014454,False,,False,,,,,29
54.087,3.7212491679999857,-0.995849609375,0.21240234375,-0.037109375,-3.633587786259542,-0.12213740458015267,3.236641221374046,-3178,-3,-1,-69.8291015625,2.6702804118232093,-0.001314,False,,False,,,,,29
54.087,3.723245371999951,-0.995849609375,0.21240234375,-0.037109375,-3.633587786259542,-0.12213740458015267,3.236641221374046,-3178,-3,-1,-69.8291015625,2.6702804118232093,-0.001314,False,,False,,,,,29
54.092,3.725246631999994,-0.968505859375,0.22998046875,-0.06396484375,-10.534351145038167,3.297709923664122,5.465648854961832,-3176,13,2,-69.78515625,3.633962107065743,0.002628,False,,False,,,,,29
54.092,3.7272459109999545,-0.968505859375,0.22998046875,-0.06396484375,-10.534351145038167,3.297709923664122,5.465648854961832,-3176,13,2,-69.78515625,3.633962107065743,0.002628,False,,False,,,,,29
54.092,3.7292509110000083,-0.968505859375,0.22998046875,-0.06396484375,-10.534351145038167,3.297709923664122,5.465648854961832,-3176,13,2,-69.78515625,3.633962107065743,0.002628,False,,False,,,,,29
54.097,3.7315720939999437,-0.96337890625,0.261962890625,-0.078857421875,-9.16030534351145,4.854961832061068,6.259541984732824,-3174,11,-4,-69.7412109375,4.467672489392202,-0.005256,False,,False,,,,,29
54.097,3.7335557799999606,-0.96337890625,0.261962890625,-0.078857421875,-9.16030534351145,4.854961832061068,6.259541984732824,-3174,11,-4,-69.7412109375,4.467672489392202,-0.005256,False,,False,,,,,29
54.102000000000004,3.735756390000006,-0.962646484375,0.272216796875,-0.072509765625,-6.931297709923664,3.9389312977099236,6.015267175572519,-3171,11,-2,-69.67529296875,5.244157909813293,-0.002628,False,,False,,,,,29
54.102000000000004,3.7377560940000194,-0.962646484375,0.272216796875,-0.072509765625,-6.931297709923664,3.9389312977099236,6.015267175572519,-3171,11,-2,-69.67529296875,5.244157909813293,-0.002628,False,,False,,,,,29
54.107,3.7397596319999593,-0.981689453125,0.261962890625,-0.0634765625,-5.251908396946565,4.030534351145038,6.412213740458015,-3169,11,-6,-69.63134765625,5.977402503153275,-0.007884,False,,False,,,,,29
54.107,3.7425895330000003,-0.981689453125,0.261962890625,-0.0634765625,-5.251908396946565,4.030534351145038,6.412213740458015,-3169,11,-6,-69.63134765625,5.977402503153275,-0.007884,False,,False,,,,,29
54.107,3.7445908109999664,-0.981689453125,0.261962890625,-0.0634765625,-5.251908396946565,4.030534351145038,6.412213740458015,-3169,11,-6,-69.63134765625,5.977402503153275,-0.007884,False,,False,,,,,29
54.112,3.746595903999946,-0.99755859375,0.224609375,-0.07958984375,-7.816793893129771,5.099236641221374,6.442748091603053,-3168,8,-5,-69.609375,6.631993170727594,-0.0065699999999999995,False,,False,,,,,29
54.112,3.7485963489999676,-0.99755859375,0.224609375,-0.07958984375,-7.816793893129771,5.099236641221374,6.442748091603053,-3168,8,-5,-69.609375,6.631993170727594,-0.0065699999999999995,False,,False,,,,,29
54.117000000000004,3.75059890600005,-0.993896484375,0.22509765625,-0.0830078125,-8.610687022900763,5.862595419847328,6.351145038167939,-3166,9,3,-69.5654296875,7.179422153979421,0.003942,False,,False,,,,,29
54.117000000000004,3.7525985539999738,-0.993896484375,0.22509765625,-0.0830078125,-8.610687022900763,5.862595419847328,6.351145038167939,-3166,9,3,-69.5654296875,7.179422153979421,0.003942,False,,False,,,,,29
54.117000000000004,3.75460103599994,-0.993896484375,0.22509765625,-0.0830078125,-8.610687022900763,5.862595419847328,6.351145038167939,-3166,9,3,-69.5654296875,7.179422153979421,0.003942,False,,False,,,,,29
54.122,3.756602943999951,-1.006103515625,0.239013671875,-0.084228515625,-8.549618320610687,6.045801526717557,6.015267175572519,-3165,4,0,-69.54345703125,7.629206887681228,0.0,False,,False,,,,,29
54.122,3.7586034820000123,-1.006103515625,0.239013671875,-0.084228515625,-8.549618320610687,6.045801526717557,6.015267175572519,-3165,4,0,-69.54345703125,7.629206887681228,0.0,False,,False,,,,,29
54.127,3.760604371999989,-1.013427734375,0.239990234375,-0.078369140625,-8.061068702290076,6.290076335877862,5.893129770992366,-3163,5,-2,-69.49951171875,7.990729739086137,-0.002628,False,,False,,,,,29
54.127,3.76260485399996,-1.013427734375,0.239990234375,-0.078369140625,-8.061068702290076,6.290076335877862,5.893129770992366,-3163,5,-2,-69.49951171875,7.990729739086137,-0.002628,False,,False,,,,,29
54.127,3.764606353999966,-1.013427734375,0.239990234375,-0.078369140625,-8.061068702290076,6.290076335877862,5.893129770992366,-3163,5,-2,-69.49951171875,7.990729739086137,-0.002628,False,,False,,,,,29
54.132,3.7666101879999587,-1.019287109375,0.225341796875,-0.082275390625,-7.938931297709924,6.3206106870229,5.6183206106870225,-3157,25,1,-69.36767578125,8.35270204258871,0.001314,False,,False,,,,,29
54.132,3.7686106329999802,-1.019287109375,0.225341796875,-0.082275390625,-7.938931297709924,6.3206106870229,5.6183206106870225,-3157,25,1,-69.36767578125,8.35270204258871,0.001314,False,,False,,,,,29
54.137,3.770610003999991,-1.016357421875,0.215576171875,-0.08447265625,-8.183206106870228,6.931297709923664,5.251908396946565,-3152,27,2,-69.2578125,8.83713156629778,0.002628,False,,False,,,,,29
54.137,3.772610986000018,-1.016357421875,0.215576171875,-0.08447265625,-8.183206106870228,6.931297709923664,5.251908396946565,-3152,27,2,-69.2578125,8.83713156629778,0.002628,False,,False,,,,,29
54.137,3.7746133199999576,-1.016357421875,0.215576171875,-0.08447265625,-8.183206106870228,6.931297709923664,5.251908396946565,-3152,27,2,-69.2578125,8.83713156629778,0.002628,False,,False,,,,,29
54.142,3.7766163400000323,-1.02978515625,0.207763671875,-0.076171875,-7.175572519083969,6.717557251908397,4.6106870229007635,-3140,49,-2,-68.994140625,9.560302563376236,-0.002628,False,,False,,,,,29
54.142,3.778617543999985,-1.02978515625,0.207763671875,-0.076171875,-7.175572519083969,6.717557251908397,4.6106870229007635,-3140,49,-2,-68.994140625,9.560302563376236,-0.002628,False,,False,,,,,29
54.147,3.7806183960000226,-1.0302734375,0.18701171875,-0.083251953125,-6.259541984732824,5.648854961832061,3.0839694656488548,-3119,104,4,-68.53271484375,10.823010198312357,0.005256,False,,False,,,,,29
54.147,3.782618712000044,-1.0302734375,0.18701171875,-0.083251953125,-6.259541984732824,5.648854961832061,3.0839694656488548,-3119,104,4,-68.53271484375,10.823010198312357,0.005256,False,,False,,,,,29
54.147,3.784620100999973,-1.0302734375,0.18701171875,-0.083251953125,-6.259541984732824,5.648854961832061,3.0839694656488548,-3119,104,4,-68.53271484375,10.823010198312357,0.005256,False,,False,,,,,29
54.152,3.786624675999974,-1.027099609375,0.191650390625,-0.07568359375,-8.610687022900763,6.625954198473282,3.847328244274809,-3095,100,-6,-68.00537109375,12.964752099699929,-0.007884,False,,False,,,,,29
54.152,3.7886242509999875,-1.027099609375,0.191650390625,-0.07568359375,-8.610687022900763,6.625954198473282,3.847328244274809,-3095,100,-6,-68.00537109375,12.964752099699929,-0.007884,False,,False,,,,,29
54.157000000000004,3.7906253070000275,-1.014404296875,0.18310546875,-0.093505859375,-12.732824427480915,7.877862595419847,4.488549618320611,-3078,73,-6,-67.6318359375,15.938703272328612,-0.007884,False,,False,,,,,29
54.157000000000004,3.792623789000004,-1.014404296875,0.18310546875,-0.093505859375,-12.732824427480915,7.877862595419847,4.488549618320611,-3078,73,-6,-67.6318359375,15.938703272328612,-0.007884,False,,False,,,,,29
54.157000000000004,3.7946247899999435,-1.014404296875,0.18310546875,-0.093505859375,-12.732824427480915,7.877862595419847,4.488549618320611,-3078,73,-6,-67.6318359375,15.938703272328612,-0.007884,False,,False,,,,,29
54.162,3.7966306050000185,-1.02734375,0.207275390625,-0.097900390625,-12.702290076335878,8.885496183206106,3.7251908396946565,-3058,93,-9,-67.1923828125,19.438957220133492,-0.011826,False,,False,,,,,29
54.162,3.798629513000037,-1.02734375,0.207275390625,-0.097900390625,-12.702290076335878,8.885496183206106,3.7251908396946565,-3058,93,-9,-67.1923828125,19.438957220133492,-0.011826,False,,False,,,,,29
54.167,3.8006299400000216,-1.029296875,0.22607421875,-0.08935546875,-9.526717557251908,8.366412213740457,3.0839694656488548,-3031,116,-3,-66.59912109375,23.424608529809536,-0.003942,False,,False,,,,,29
54.167,3.802632496000001,-1.029296875,0.22607421875,-0.08935546875,-9.526717557251908,8.366412213740457,3.0839694656488548,-3031,116,-3,-66.59912109375,23.424608529809536,-0.003942,False,,False,,,,,29
54.167,3.804633773999967,-1.029296875,0.22607421875,-0.08935546875,-9.526717557251908,8.366412213740457,3.0839694656488548,-3031,116,-3,-66.59912109375,23.424608529809536,-0.003942,False,,False,,,,,29
54.172000000000004,3.8066386640000474,-1.027099609375,0.170166015625,-0.0859375,-9.374045801526718,6.931297709923664,1.7099236641221374,-3001,134,-4,-65.93994140625,28.077198417616785,-0.005256,False,,False,,,,,29
54.172000000000004,3.8086394609999843,-1.027099609375,0.170166015625,-0.0859375,-9.374045801526718,6.931297709923664,1.7099236641221374,-3001,134,-4,-65.93994140625,28.077198417616785,-0.005256,False,,False,,,,,29
54.177,3.8106393130000242,-1.04833984375,0.183837890625,-0.07177734375,-8.702290076335878,7.603053435114504,1.648854961832061,-2964,163,-3,-65.126953125,33.53904810227565,-0.003942,False,,False,,,,,29
54.177,3.812639646999969,-1.04833984375,0.183837890625,-0.07177734375,-8.702290076335878,7.603053435114504,1.648854961832061,-2964,163,-3,-65.126953125,33.53904810227565,-0.003942,False,,False,,,,,29
54.177,3.8146422769999617,-1.04833984375,0.183837890625,-0.07177734375,-8.702290076335878,7.603053435114504,1.648854961832061,-2964,163,-3,-65.126953125,33.53904810227565,-0.003942,False,,False,,,,,29
54.182,3.816644907999944,-1.014892578125,0.153076171875,-0.08056640625,-11.572519083969466,8.427480916030534,1.618320610687023,-2922,182,-4,-64.2041015625,39.94941395688535,-0.005256,False,,False,,,,,29
54.182,3.8186467040000025,-1.014892578125,0.153076171875,-0.08056640625,-11.572519083969466,8.427480916030534,1.618320610687023,-2922,182,-4,-64.2041015625,39.94941395688535,-0.005256,False,,False,,,,,29
54.187,3.820646574999955,-1.05322265625,0.192138671875,-0.0751953125,-12.48854961832061,7.633587786259541,1.2213740458015268,-2879,191,-4,-63.25927734375,47.34747559752746,-0.005256,False,,False,,,,,29
54.187,3.822648576000006,-1.05322265625,0.192138671875,-0.0751953125,-12.48854961832061,7.633587786259541,1.2213740458015268,-2879,191,-4,-63.25927734375,47.34747559752746,-0.005256,False,,False,,,,,29
54.187,3.8246492429999535,-1.05322265625,0.192138671875,-0.0751953125,-12.48854961832061,7.633587786259541,1.2213740458015268,-2879,191,-4,-63.25927734375,47.34747559752746,-0.005256,False,,False,,,,,29
54.192,3.8266547069999888,-1.04833984375,0.221923828125,-0.074951171875,-12.67175572519084,8.946564885496183,1.1603053435114503,-2831,213,-2,-62.20458984375,55.6562314460368,-0.002628,False,,False,,,,,29
54.192,3.8286578930000132,-1.04833984375,0.221923828125,-0.074951171875,-12.67175572519084,8.946564885496183,1.1603053435114503,-2831,213,-2,-62.20458984375,55.6562314460368,-0.002628,False,,False,,,,,29
54.197,3.8306572269999606,-1.0048828125,0.185791015625,-0.108154296875,-13.31297709923664,8.366412213740457,-0.24427480916030533,-2781,234,2,-61.10595703125,64.81393980913595,0.002628,False,,False,,,,,29
54.197,3.832655616000011,-1.0048828125,0.185791015625,-0.108154296875,-13.31297709923664,8.366412213740457,-0.24427480916030533,-2781,234,2,-61.10595703125,64.81393980913595,0.002628,False,,False,,,,,29
54.197,3.834658283999943,-1.0048828125,0.185791015625,-0.108154296875,-13.31297709923664,8.366412213740457,-0.24427480916030533,-2781,234,2,-61.10595703125,64.81393980913595,0.002628,False,,False,,,,,29
