state_time,loop_time,accel_x,accel_y,accel_z,gyro_x,gyro_y,gyro_z,motor_angle,motor_velocity,motor_current,hip_angle,hip_velocity,hip_torque_from_current,did_heel_strike,gait_phase,did_toe_off,commanded_current,commanded_position,commanded_torque,commanded_voltage,temperature
95.97,3.708052754999997,1.025634765625,0.272705078125,-0.032958984375,45.19083969465649,18.290076335877863,0.4580152671755725,1221,-95,4,12.713793949779143,0.013912837956230292,0.005256,False,,False,,,,,29
95.97,3.710053823999999,1.025634765625,0.272705078125,-0.032958984375,45.19083969465649,18.290076335877863,0.4580152671755725,1221,-95,4,12.713793949779143,0.013912837956230292,0.005256,False,,False,,,,,29
95.97,3.7120552079999953,1.025634765625,0.272705078125,-0.032958984375,45.19083969465649,18.290076335877863,0.4580152671755725,1221,-95,4,12.713793949779143,0.013912837956230292,0.005256,False,,False,,,,,29
95.97,3.7140567399999895,1.025634765625,0.272705078125,-0.032958984375,45.19083969465649,18.290076335877863,0.4580152671755725,1221,-95,4,12.713793949779143,0.013912837956230292,0.005256,False,,False,,,,,29
95.98,3.7170702129999995,0.96728515625,0.32470703125,-0.041748046875,42.01526717557252,16.030534351145036,-1.7404580152671756,1180,-104,0,12.815142826732268,-5.622348680140009,0.0,False,,False,,,,,29
95.985,3.7203816029999928,0.974853515625,0.333251953125,-0.042236328125,43.14503816793893,15.786259541984732,-1.3129770992366412,1152,-115,2,12.884356693919768,-32.91732990166303,0.002628,False,,False,,,,,30
95.99000000000001,3.7245899699999967,0.951904296875,0.369140625,-0.04345703125,44.45801526717557,14.381679389312977,-3.236641221374046,1123,-136,6,12.956042484935393,-94.9858631513109,0.007884,False,,False,,,,,30
95.99000000000001,3.7268212639999945,0.951904296875,0.369140625,-0.04345703125,44.45801526717557,14.381679389312977,-3.236641221374046,1123,-136,6,12.956042484935393,-94.9858631513109,0.007884,False,,False,,,,,30
95.995,3.7294261870000014,0.9228515625,0.351318359375,-0.05712890625,42.93129770992366,14.198473282442748,-3.236641221374046,1091,-137,4,13.035144047435393,-190.9422590148412,0.005256,False,,False,,,,,29
95.995,3.731808068999996,0.9228515625,0.351318359375,-0.05712890625,42.93129770992366,14.198473282442748,-3.236641221374046,1091,-137,4,13.035144047435393,-190.9422590148412,0.005256,False,,False,,,,,29
96.0,3.7340579709999986,0.923583984375,0.36572265625,-0.040771484375,47.14503816793893,13.31297709923664,-4.091603053435114,1061,-132,1,13.109301762279143,-313.86990511764395,0.001314,False,,False,,,,,29
96.005,3.7389454030000024,0.91845703125,0.3291015625,-0.046630859375,46.3206106870229,14.045801526717558,-3.0534351145038165,1031,-133,-4,13.183459477122893,-457.5983584021425,-0.005256,False,,False,,,,,29
96.005,3.741674047999993,0.91845703125,0.3291015625,-0.046630859375,46.3206106870229,14.045801526717558,-3.0534351145038165,1031,-133,-4,13.183459477122893,-457.5983584021425,-0.005256,False,,False,,,,,29
96.01,3.7444460379999924,0.93994140625,0.34765625,-0.03125,47.93893129770992,13.923664122137405,-3.8167938931297707,1002,-136,1,13.255145268138518,-616.6640825732208,0.001314,False,,False,,,,,29
96.01,3.7466854970000014,0.93994140625,0.34765625,-0.03125,47.93893129770992,13.923664122137405,-3.8167938931297707,1002,-136,1,13.255145268138518,-616.6640825732208,0.001314,False,,False,,,,,29
96.015,3.749070193999998,0.898681640625,0.34423828125,-0.041015625,45.89312977099237,12.885496183206106,-5.038167938931298,969,-150,2,13.336718754466643,-786.261965930964,0.002628,False,,False,,,,,29
96.015,3.751071577999994,0.898681640625,0.34423828125,-0.041015625,45.89312977099237,12.885496183206106,-5.038167938931298,969,-150,2,13.336718754466643,-786.261965930964,0.002628,False,,False,,,,,29
96.015,3.753073072999996,0.898681640625,0.34423828125,-0.041015625,45.89312977099237,12.885496183206106,-5.038167938931298,969,-150,2,13.336718754466643,-786.261965930964,0.002628,False,,False,,,,,29
96.02,3.7550744199999997,0.92919921875,0.339599609375,-0.027099609375,50.65648854961832,14.198473282442748,-3.847328244274809,942,-117,-8,13.403460697826018,-962.2184711272454,-0.010512,False,,False,,,,,29
96.02,3.75771894799999,0.92919921875,0.339599609375,-0.027099609375,50.65648854961832,14.198473282442748,-3.847328244274809,942,-117,-8,13.403460697826018,-962.2184711272454,-0.010512,False,,False,,,,,29
96.025,3.759719739999994,0.906005859375,0.306396484375,-0.03955078125,50.595419847328245,14.839694656488549,-2.9923664122137406,917,-110,0,13.465258793529143,-1140.9671692064924,0.0,False,,False,,,,,29
96.025,3.7620754959999942,0.906005859375,0.306396484375,-0.03955078125,50.595419847328245,14.839694656488549,-2.9923664122137406,917,-110,0,13.465258793529143,-1140.9671692064924,0.0,False,,False,,,,,29
96.03,3.7640766769999914,0.939453125,0.284912109375,-0.02783203125,52.732824427480914,16.427480916030532,-1.099236641221374,903,-57,3,13.499865727122893,-1319.5015570989945,0.003942,False,,False,,,,,29
96.03,3.7660778939999915,0.939453125,0.284912109375,-0.02783203125,52.732824427480914,16.427480916030532,-1.099236641221374,903,-57,3,13.499865727122893,-1319.5015570989945,0.003942,False,,False,,,,,29
96.03,3.7680816299999975,0.939453125,0.284912109375,-0.02783203125,52.732824427480914,16.427480916030532,-1.099236641221374,903,-57,3,13.499865727122893,-1319.5015570989945,0.003942,False,,False,,,,,29
96.035,3.77008155099999,0.945068359375,0.2734375,-0.026123046875,55.541984732824424,16.97709923664122,-0.12213740458015267,901,-8,1,13.504809574779143,-1495.3346078158806,0.001314,False,,False,,,,,29
96.035,3.772082693999991,0.945068359375,0.2734375,-0.026123046875,55.541984732824424,16.97709923664122,-0.12213740458015267,901,-8,1,13.504809574779143,-1495.3346078158806,0.001314,False,,False,,,,,29
96.04,3.7740838929999967,0.931396484375,0.258056640625,-0.029052734375,52.916030534351144,17.740458015267176,0.030534351145038167,901,3,-2,13.504809574779143,-1666.425152031682,-0.002628,False,,False,,,,,29
96.04,3.7760860549999933,0.931396484375,0.258056640625,-0.029052734375,52.916030534351144,17.740458015267176,0.030534351145038167,901,3,-2,13.504809574779143,-1666.425152031682,-0.002628,False,,False,,,,,29
96.04,3.7780857349999906,0.931396484375,0.258056640625,-0.029052734375,52.916030534351144,17.740458015267176,0.030534351145038167,901,3,-2,13.504809574779143,-1666.425152031682,-0.002628,False,,False,,,,,29
96.045,3.7800868049999963,0.942138671875,0.273681640625,-0.02490234375,52.12213740458015,18.137404580152673,0.3969465648854962,901,-1,-6,13.504809574779143,-1831.0954630449899,-0.007884,False,,False,,,,,29
96.045,3.782088576999996,0.942138671875,0.273681640625,-0.02490234375,52.12213740458015,18.137404580152673,0.3969465648854962,901,-1,-6,13.504809574779143,-1831.0954630449899,-0.007884,False,,False,,,,,29
96.05,3.7840894059999926,0.93603515625,0.277587890625,-0.02685546875,51.725190839694655,18.106870229007633,0.33587786259541985,901,-3,-1,13.504809574779143,-1988.0089199469337,-0.001314,False,,False,,,,,29
96.05,3.7860941409999924,0.93603515625,0.277587890625,-0.02685546875,51.725190839694655,18.106870229007633,0.33587786259541985,901,-3,-1,13.504809574779143,-1988.0089199469337,-0.001314,False,,False,,,,,29
96.05,3.7880965619999927,0.93603515625,0.277587890625,-0.02685546875,51.725190839694655,18.106870229007633,0.33587786259541985,901,-3,-1,13.504809574779143,-1988.0089199469337,-0.001314,False,,False,,,,,29
96.055,3.7900982430000028,0.93701171875,0.276611328125,-0.0283203125,52.06106870229007,18.381679389312975,0.549618320610687,901,-3,-5,13.504809574779143,-2136.1553186501524,-0.0065699999999999995,False,,False,,,,,29
96.055,3.7920982750000007,0.93701171875,0.276611328125,-0.0283203125,52.06106870229007,18.381679389312975,0.549618320610687,901,-3,-5,13.504809574779143,-2136.1553186501524,-0.0065699999999999995,False,,False,,,,,29
96.06,3.7941004179999993,0.942138671875,0.2724609375,-0.03125,50.50381679389313,17.98473282442748,0.48854961832061067,901,0,1,13.504809574779143,-2274.8159407991257,0.001314,False,,False,,,,,29
96.06,3.796111134,0.942138671875,0.2724609375,-0.03125,50.50381679389313,17.98473282442748,0.48854961832061067,901,0,1,13.504809574779143,-2274.8159407991257,0.001314,False,,False,,,,,29
96.06,3.7981002789999962,0.942138671875,0.2724609375,-0.03125,50.50381679389313,17.98473282442748,0.48854961832061067,901,0,1,13.504809574779143,-2274.8159407991257,0.001314,False,,False,,,,,29
96.065,3.8001014599999934,0.9423828125,0.27685546875,-0.036865234375,49.282442748091604,17.19083969465649,0.33587786259541985,900,-1,7,13.507281498607268,-2403.524715916494,0.009198,False,,False,,,,,29
96.065,3.802103195000001,0.9423828125,0.27685546875,-0.036865234375,49.282442748091604,17.19083969465649,0.33587786259541985,900,-1,7,13.507281498607268,-2403.524715916494,0.009198,False,,False,,,,,29
96.07000000000001,3.8041080050000033,0.9384765625,0.288818359375,-0.04296875,48.12213740458015,16.82442748091603,-0.24427480916030533,897,-13,-8,13.514697270091643,-2522.0302565196216,-0.010512,False,,False,,,,,29
96.07000000000001,3.8061076850000006,0.9384765625,0.288818359375,-0.04296875,48.12213740458015,16.82442748091603,-0.24427480916030533,897,-13,-8,13.514697270091643,-2522.0302565196216,-0.010512,False,,False,,,,,29
96.07000000000001,3.8081084579999924,0.9384765625,0.288818359375,-0.04296875,48.12213740458015,16.82442748091603,-0.24427480916030533,897,-13,-8,13.514697270091643,-2522.0302565196216,-0.010512,False,,False,,,,,29
96.075,3.810110175999995,0.93603515625,0.300537109375,-0.044921875,47.32824427480916,16.33587786259542,-1.0076335877862594,892,-20,-6,13.527056889232268,-2630.2645455714874,-0.007884,False,,False,,,,,29
96.075,3.8121104859999946,0.93603515625,0.300537109375,-0.044921875,47.32824427480916,16.33587786259542,-1.0076335877862594,892,-20,-6,13.527056889232268,-2630.2645455714874,-0.007884,False,,False,,,,,29
96.08,3.814112387999998,0.90966796875,0.333984375,-0.045654296875,42.80916030534351,14.290076335877862,-4.427480916030534,876,-74,-1,13.566607670482268,-2728.3015322226343,-0.001314,False,,False,,,,,29
96.08,3.8161143089999996,0.90966796875,0.333984375,-0.045654296875,42.80916030534351,14.290076335877862,-4.427480916030534,876,-74,-1,13.566607670482268,-2728.3015322226343,-0.001314,False,,False,,,,,29
96.08,3.8181146009999907,0.90966796875,0.333984375,-0.045654296875,42.80916030534351,14.290076335877862,-4.427480916030534,876,-74,-1,13.566607670482268,-2728.3015322226343,-0.001314,False,,False,,,,,29
96.08500000000001,3.8201158549999974,0.895263671875,0.343017578125,-0.048095703125,38.900763358778626,12.885496183206106,-6.229007633587786,849,-127,-4,13.633349613841643,-2816.3186217964126,-0.005256,False,,False,,,,,29
96.08500000000001,3.8221165730000024,0.895263671875,0.343017578125,-0.048095703125,38.900763358778626,12.885496183206106,-6.229007633587786,849,-127,-4,13.633349613841643,-2816.3186217964126,-0.005256,False,,False,,,,,29
96.09,3.824120049000001,0.911376953125,0.34716796875,-0.049072265625,39.17557251908397,13.190839694656487,-6.3206106870229,817,-135,-4,13.712451176341643,-2894.6041187659403,-0.005256,False,,False,,,,,29
96.09,3.826123043999999,0.911376953125,0.34716796875,-0.049072265625,39.17557251908397,13.190839694656487,-6.3206106870229,817,-135,-4,13.712451176341643,-2894.6041187659403,-0.005256,False,,False,,,,,29
96.09,3.828122927999999,0.911376953125,0.34716796875,-0.049072265625,39.17557251908397,13.190839694656487,-6.3206106870229,817,-135,-4,13.712451176341643,-2894.6041187659403,-0.005256,False,,False,,,,,29
96.095,3.830124349000002,0.905029296875,0.37353515625,-0.05615234375,40.58015267175573,11.358778625954198,-7.908396946564885,779,-170,-1,13.806384281810393,-2963.5600608081695,-0.001314,False,,False,,,,,29
96.095,3.8321248259999976,0.905029296875,0.37353515625,-0.05615234375,40.58015267175573,11.358778625954198,-7.908396946564885,779,-170,-1,13.806384281810393,-2963.5600608081695,-0.001314,False,,False,,,,,29
96.10000000000001,3.8341274320000025,0.912109375,0.37109375,-0.026123046875,41.038167938931295,12.061068702290076,-8.51908396946565,739,-168,5,13.905261234935393,-3023.672505229153,0.0065699999999999995,False,,False,,,,,29
96.10000000000001,3.8361282979999913,0.912109375,0.37109375,-0.026123046875,41.038167938931295,12.061068702290076,-8.51908396946565,739,-168,5,13.905261234935393,-3023.672505229153,0.0065699999999999995,False,,False,,,,,29
96.10000000000001,3.8381327740000017,0.912109375,0.37109375,-0.026123046875,41.038167938931295,12.061068702290076,-8.51908396946565,739,-168,5,13.905261234935393,-3023.672505229153,0.0065699999999999995,False,,False,,,,,29
96.105,3.8401527110000018,0.87158203125,0.33056640625,-0.03759765625,39.541984732824424,12.15267175572519,-7.450381679389313,697,-187,0,14.009082035716643,-3075.489017143561,0.0,False,,False,,,,,29
96.11,3.8440481060000025,0.91259765625,0.3779296875,-0.0107421875,39.96946564885496,11.389312977099236,-8.946564885496183,650,-209,-2,14.125262455638518,-3119.5899794241273,-0.002628,False,,False,,,,,29
96.11,3.846052082,0.91259765625,0.3779296875,-0.0107421875,39.96946564885496,11.389312977099236,-8.946564885496183,650,-209,-2,14.125262455638518,-3119.5899794241273,-0.002628,False,,False,,,,,29
96.11,3.848051818000002,0.91259765625,0.3779296875,-0.0107421875,39.96946564885496,11.389312977099236,-8.946564885496183,650,-209,-2,14.125262455638518,-3119.5899794241273,-0.002628,False,,False,,,,,29
96.11500000000001,3.8500520540000025,0.87353515625,0.3271484375,-0.03271484375,41.49618320610687,13.007633587786259,-6.809160305343511,609,-177,0,14.226611332591643,-3156.582003537356,0.0,False,,False,,,,,29
96.11500000000001,3.852054234999997,0.87353515625,0.3271484375,-0.03271484375,41.49618320610687,13.007633587786259,-6.809160305343511,609,-177,0,14.226611332591643,-3156.582003537356,0.0,False,,False,,,,,29
96.12,3.854055082000002,0.89404296875,0.3173828125,-0.02734375,45.43511450381679,15.389312977099236,-5.6183206106870225,570,-166,1,14.323016361888518,-3187.102776274723,0.001314,False,,False,,,,,29
96.12,3.8560569289999904,0.89404296875,0.3173828125,-0.02734375,45.43511450381679,15.389312977099236,-5.6183206106870225,570,-166,1,14.323016361888518,-3187.102776274723,0.001314,False,,False,,,,,29
96.12,3.8580579239999935,0.89404296875,0.3173828125,-0.02734375,45.43511450381679,15.389312977099236,-5.6183206106870225,570,-166,1,14.323016361888518,-3187.102776274723,0.001314,False,,False,,,,,29
96.125,3.860059251999999,0.93359375,0.347412109375,-0.0107421875,45.89312977099237,14.687022900763358,-6.809160305343511,535,-150,2,14.409533695872893,-3211.7888570841465,0.002628,False,,False,,,,,29
96.125,3.862061228999991,0.93359375,0.347412109375,-0.0107421875,45.89312977099237,14.687022900763358,-6.809160305343511,535,-150,2,14.409533695872893,-3211.7888570841465,0.002628,False,,False,,,,,29
96.13,3.864062279999999,0.90869140625,0.29638671875,-0.035888671875,45.00763358778626,16.12213740458015,-4.885496183206107,503,-135,0,14.488635258372893,-3231.2558969347915,0.0,False,,False,,,,,29
96.13,3.866065163000002,0.90869140625,0.29638671875,-0.035888671875,45.00763358778626,16.12213740458015,-4.885496183206107,503,-135,0,14.488635258372893,-3231.2558969347915,0.0,False,,False,,,,,29
96.13,3.8680643439999898,0.90869140625,0.29638671875,-0.035888671875,45.00763358778626,16.12213740458015,-4.885496183206107,503,-135,0,14.488635258372893,-3231.2558969347915,0.0,False,,False,,,,,29
96.135,3.8700646539999894,0.96484375,0.316162109375,-0.017578125,48.82442748091603,16.82442748091603,-4.33587786259542,480,-98,6,14.545489506419768,-3246.1056573632236,0.007884,False,,False,,,,,29
96.135,3.872069001,0.96484375,0.316162109375,-0.017578125,48.82442748091603,16.82442748091603,-4.33587786259542,480,-98,6,14.545489506419768,-3246.1056573632236,0.007884,False,,False,,,,,29
96.14,3.876860706000002,0.958251953125,0.280029296875,-0.02978515625,50.10687022900763,18.748091603053435,-2.229007633587786,459,-82,9,14.597399906810393,-3256.9159733650845,0.011826,False,,False,,,,,29
96.145,3.878858274999999,0.987060546875,0.262451171875,-0.02880859375,53.52671755725191,19.69465648854962,-0.6717557251908397,453,-21,3,14.612231449779143,-3264.23806864192,0.003942,False,,False,,,,,29
96.145,3.8808590109999983,0.987060546875,0.262451171875,-0.02880859375,53.52671755725191,19.69465648854962,-0.6717557251908397,453,-21,3,14.612231449779143,-3264.23806864192,0.003942,False,,False,,,,,29
96.145,3.88286330199999,0.987060546875,0.262451171875,-0.02880859375,53.52671755725191,19.69465648854962,-0.6717557251908397,453,-21,3,14.612231449779143,-3264.23806864192,0.003942,False,,False,,,,,29
96.15,3.8848650199999923,0.985595703125,0.268798828125,-0.02978515625,54.595419847328245,20.30534351145038,-0.6717557251908397,454,9,7,14.609759525951018,-3268.6036460062855,0.009198,False,,False,,,,,29
96.15,3.886866292999997,0.985595703125,0.268798828125,-0.02978515625,54.595419847328245,20.30534351145038,-0.6717557251908397,454,9,7,14.609759525951018,-3268.6036460062855,0.009198,False,,False,,,,,29
96.155,3.8888651030000005,0.97607421875,0.2529296875,-0.034423828125,51.75572519083969,20.458015267175572,-1.0381679389312977,455,-4,9,14.607287602122893,-3270.4827625201597,0.011826,False,,False,,,,,29
96.155,3.890865765000001,0.97607421875,0.2529296875,-0.034423828125,51.75572519083969,20.458015267175572,-1.0381679389312977,455,-4,9,14.607287602122893,-3270.4827625201597,0.011826,False,,False,,,,,29
96.155,3.892867870999993,0.97607421875,0.2529296875,-0.034423828125,51.75572519083969,20.458015267175572,-1.0381679389312977,455,-4,9,14.607287602122893,-3270.4827625201597,0.011826,False,,False,,,,,29
96.16,3.894868291999998,0.994140625,0.27392578125,-0.0400390625,50.13740458015267,19.48091603053435,-0.9770992366412213,455,2,11,14.607287602122893,-3270.2637804122996,0.014454,False,,False,,,,,29
96.16,3.896870175999993,0.994140625,0.27392578125,-0.0400390625,50.13740458015267,19.48091603053435,-0.9770992366412213,455,2,11,14.607287602122893,-3270.2637804122996,0.014454,False,,False,,,,,29
96.165,3.8988718749999975,0.993408203125,0.279296875,-0.042724609375,50.50381679389313,19.419847328244273,-1.3435114503816794,454,-5,-4,14.609759525951018,-3268.286109457106,-0.005256,False,,False,,,,,29
96.165,3.9008730919999977,0.993408203125,0.279296875,-0.042724609375,50.50381679389313,19.419847328244273,-1.3435114503816794,454,-5,-4,14.609759525951018,-3268.286109457106,-0.005256,False,,False,,,,,29
96.165,3.9028746059999975,0.993408203125,0.279296875,-0.042724609375,50.50381679389313,19.419847328244273,-1.3435114503816794,454,-5,-4,14.609759525951018,-3268.286109457106,-0.005256,False,,False,,,,,29
96.17,3.9048760459999983,0.99169921875,0.281982421875,-0.0458984375,50.68702290076336,19.175572519083968,-1.4045801526717556,455,-4,-1,14.607287602122893,-3264.8629559418196,-0.001314,False,,False,,,,,29
96.17,3.906877393000002,0.99169921875,0.281982421875,-0.0458984375,50.68702290076336,19.175572519083968,-1.4045801526717556,455,-4,-1,14.607287602122893,-3264.8629559418196,-0.001314,False,,False,,,,,29
96.175,3.908878776999998,0.99267578125,0.271484375,-0.04248046875,50.473282442748086,18.35114503816794,-1.618320610687023,454,-1,4,14.609759525951018,-3260.281051741449,0.005256,False,,False,,,,,29
96.175,3.9108798639999947,0.99267578125,0.271484375,-0.04248046875,50.473282442748086,18.35114503816794,-1.618320610687023,454,-1,4,14.609759525951018,-3260.281051741449,0.005256,False,,False,,,,,29
96.175,3.9128813969999925,0.99267578125,0.271484375,-0.04248046875,50.473282442748086,18.35114503816794,-1.618320610687023,454,-1,4,14.609759525951018,-3260.281051741449,0.005256,False,,False,,,,,29
96.18,3.9148822249999995,0.996826171875,0.271728515625,-0.036865234375,49.77099236641221,17.12977099236641,-1.7404580152671756,455,1,10,14.607287602122893,-3254.795439520128,0.013139999999999999,False,,False,,,,,29
96.18,3.916884146000001,0.996826171875,0.271728515625,-0.036865234375,49.77099236641221,17.12977099236641,-1.7404580152671756,455,1,10,14.607287602122893,-3254.795439520128,0.013139999999999999,False,,False,,,,,29
96.185,3.918885066999991,0.9921875,0.27978515625,-0.03466796875,49.70992366412214,16.366412213740457,-1.6793893129770991,455,2,0,14.607287602122893,-3248.6345185912296,0.0,False,,False,,,,,29
96.185,3.9208862659999966,0.9921875,0.27978515625,-0.03466796875,49.70992366412214,16.366412213740457,-1.6793893129770991,455,2,0,14.607287602122893,-3248.6345185912296,0.0,False,,False,,,,,29
96.185,3.9228876499999927,0.9921875,0.27978515625,-0.03466796875,49.70992366412214,16.366412213740457,-1.6793893129770991,455,2,0,14.607287602122893,-3248.6345185912296,0.0,False,,False,,,,,29
96.19,3.9248882010000017,0.993896484375,0.279052734375,-0.03125,49.862595419847324,16.091603053435115,-1.465648854961832,455,-1,1,14.607287602122893,-3241.9974931772194,0.001314,False,,False,,,,,29
96.2,3.9360495789999987,0.988037109375,0.296142578125,-0.031982421875,49.70992366412214,13.526717557251908,-1.2519083969465647,455,5,1,14.607287602122893,-3229.358606041908,0.001314,False,,False,,,,,29
96.2,3.938047815999994,0.988037109375,0.296142578125,-0.031982421875,49.70992366412214,13.526717557251908,-1.2519083969465647,455,5,1,14.607287602122893,-3229.358606041908,0.001314,False,,False,,,,,29
96.205,3.9400492740000033,0.989990234375,0.302001953125,-0.033203125,50.13740458015267,12.6412213740458,-1.1603053435114503,456,2,5,14.604815678294768,-3206.1823229527677,0.0065699999999999995,False,,False,,,,,29
96.205,3.9420514729999923,0.989990234375,0.302001953125,-0.033203125,50.13740458015267,12.6412213740458,-1.1603053435114503,456,2,5,14.604815678294768,-3206.1823229527677,0.0065699999999999995,False,,False,,,,,29
96.21000000000001,3.944051782999992,0.989990234375,0.308837890625,-0.03369140625,50.351145038167935,11.786259541984732,-0.916030534351145,456,5,0,14.604815678294768,-3180.219498334566,0.0,False,,False,,,,,29
96.21000000000001,3.9460546859999965,0.989990234375,0.308837890625,-0.03369140625,50.351145038167935,11.786259541984732,-0.916030534351145,456,5,0,14.604815678294768,-3180.219498334566,0.0,False,,False,,,,,29
96.21000000000001,3.9480546079999925,0.989990234375,0.308837890625,-0.03369140625,50.351145038167935,11.786259541984732,-0.916030534351145,456,5,0,14.604815678294768,-3180.219498334566,0.0,False,,False,,,,,29
96.215,3.9500559179999897,0.989990234375,0.308349609375,-0.03369140625,50.595419847328245,11.145038167938932,-0.7633587786259541,455,3,-4,14.607287602122893,-3157.99400164456,-0.005256,False,,False,,,,,29
96.215,3.952057561999993,0.989990234375,0.308349609375,-0.03369140625,50.595419847328245,11.145038167938932,-0.7633587786259541,455,3,-4,14.607287602122893,-3157.99400164456,-0.005256,False,,False,,,,,29
96.215,3.954060222999999,0.989990234375,0.308349609375,-0.03369140625,50.595419847328245,11.145038167938932,-0.7633587786259541,455,3,-4,14.607287602122893,-3157.99400164456,-0.005256,False,,False,,,,,29
96.215,3.9560638479999994,0.989990234375,0.308349609375,-0.03369140625,50.595419847328245,11.145038167938932,-0.7633587786259541,455,3,-4,14.607287602122893,-3157.99400164456,-0.005256,False,,False,,,,,29
96.215,3.958062196,0.989990234375,0.308349609375,-0.03369140625,50.595419847328245,11.145038167938932,-0.7633587786259541,455,3,-4,14.607287602122893,-3157.99400164456,-0.005256,False,,False,,,,,29
96.22500000000001,3.9600634689999907,0.98974609375,0.312255859375,-0.024169921875,50.74809160305343,9.740458015267174,-0.2748091603053435,453,0,2,14.612231449779143,-3133.5162964432116,0.002628,False,,False,,,,,30
96.22500000000001,3.9620659459999956,0.98974609375,0.312255859375,-0.024169921875,50.74809160305343,9.740458015267174,-0.2748091603053435,453,0,2,14.612231449779143,-3133.5162964432116,0.002628,False,,False,,,,,30
96.23,3.964066533999997,0.98876953125,0.313232421875,-0.013671875,50.74809160305343,9.770992366412214,-0.183206106870229,454,-3,3,14.609759525951018,-3101.8118418682134,0.003942,False,,False,,,,,30
96.23,3.9660889339999983,0.98876953125,0.313232421875,-0.013671875,50.74809160305343,9.770992366412214,-0.183206106870229,454,-3,3,14.609759525951018,-3101.8118418682134,0.003942,False,,False,,,,,30
96.23,3.968087410999999,0.98876953125,0.313232421875,-0.013671875,50.74809160305343,9.770992366412214,-0.183206106870229,454,-3,3,14.609759525951018,-3101.8118418682134,0.003942,False,,False,,,,,30
96.235,3.9700888329999913,0.986572265625,0.312255859375,-0.00927734375,50.83969465648855,10.229007633587786,0.2748091603053435,454,0,7,14.609759525951018,-3070.2195846273453,0.009198,False,,False,,,,,30
96.235,3.9720902910000007,0.986572265625,0.312255859375,-0.00927734375,50.83969465648855,10.229007633587786,0.2748091603053435,454,0,7,14.609759525951018,-3070.2195846273453,0.009198,False,,False,,,,,30
96.24000000000001,3.9740921009999965,0.978271484375,0.311279296875,-0.00830078125,50.045801526717554,10.50381679389313,0.24427480916030533,452,-5,12,14.614703373607268,-3044.872978350996,0.015768,False,,False,,,,,30
96.24000000000001,3.976260776999993,0.978271484375,0.311279296875,-0.00830078125,50.045801526717554,10.50381679389313,0.24427480916030533,452,-5,12,14.614703373607268,-3044.872978350996,0.015768,False,,False,,,,,30
96.24000000000001,3.9782716969999967,0.978271484375,0.311279296875,-0.00830078125,50.045801526717554,10.50381679389313,0.24427480916030533,452,-5,12,14.614703373607268,-3044.872978350996,0.015768,False,,False,,,,,30
96.245,3.9802621569999985,0.9677734375,0.31396484375,-0.012451171875,49.80152671755725,10.870229007633588,0.7022900763358778,453,0,2,14.612231449779143,-3025.1187247955936,0.002628,False,,False,,,,,29
96.245,3.9822596709999942,0.9677734375,0.31396484375,-0.012451171875,49.80152671755725,10.870229007633588,0.7022900763358778,453,0,2,14.612231449779143,-3025.1187247955936,0.002628,False,,False,,,,,29
96.25,3.9842615929999994,0.962890625,0.314208984375,-0.006103515625,50.3206106870229,11.84732824427481,0.9465648854961831,452,0,2,14.614703373607268,-3010.3360417936565,0.002628,False,,False,,,,,29
96.25,3.9862644950000004,0.962890625,0.314208984375,-0.006103515625,50.3206106870229,11.84732824427481,0.9465648854961831,452,0,2,14.614703373607268,-3010.3360417936565,0.002628,False,,False,,,,,29
96.25,3.988264749999999,0.962890625,0.314208984375,-0.006103515625,50.3206106870229,11.84732824427481,0.9465648854961831,452,0,2,14.614703373607268,-3010.3360417936565,0.002628,False,,False,,,,,29
96.255,3.99026680099999,0.9560546875,0.30859375,-0.001708984375,50.65648854961832,13.038167938931297,1.1908396946564885,453,-1,2,14.612231449779143,-2999.931409620281,0.002628,False,,False,,,,,29
96.255,3.992268629999998,0.9560546875,0.30859375,-0.001708984375,50.65648854961832,13.038167938931297,1.1908396946564885,453,-1,2,14.612231449779143,-2999.931409620281,0.002628,False,,False,,,,,29
96.26,3.994270661999991,0.97119140625,0.2958984375,-0.01123046875,49.80152671755725,14.045801526717558,1.282442748091603,449,-9,0,14.622119145091643,-2993.3373588123586,0.0,False,,False,,,,,29
96.26,3.9962735459999976,0.97119140625,0.2958984375,-0.01123046875,49.80152671755725,14.045801526717558,1.282442748091603,449,-9,0,14.622119145091643,-2993.3373588123586,0.0,False,,False,,,,,29
96.26,3.9982730050000015,0.97119140625,0.2958984375,-0.01123046875,49.80152671755725,14.045801526717558,1.282442748091603,449,-9,0,14.622119145091643,-2993.3373588123586,0.0,False,,False,,,,,29
96.265,4.000274926000003,0.957275390625,0.288818359375,-0.042236328125,47.96946564885496,14.412213740458014,2.351145038167939,446,-17,0,14.629534916576018,-2990.0164494826886,0.0,False,,False,,,,,29
96.265,4.0022759959999945,0.957275390625,0.288818359375,-0.042236328125,47.96946564885496,14.412213740458014,2.351145038167939,446,-17,0,14.629534916576018,-2990.0164494826886,0.0,False,,False,,,,,29
96.27,4.004277787999996,0.96728515625,0.310791015625,-0.029052734375,47.96946564885496,12.48854961832061,1.7709923664122136,439,-35,0,14.646838383372893,-2989.471329715169,0.0,False,,False,,,,,29
96.27,4.006281134999995,0.96728515625,0.310791015625,-0.029052734375,47.96946564885496,12.48854961832061,1.7709923664122136,439,-35,0,14.646838383372893,-2989.471329715169,0.0,False,,False,,,,,29
96.27,4.008281518999993,0.96728515625,0.310791015625,-0.029052734375,47.96946564885496,12.48854961832061,1.7709923664122136,439,-35,0,14.646838383372893,-2989.471329715169,0.0,False,,False,,,,,29
96.275,4.010282070000002,0.9462890625,0.31640625,-0.0419921875,46.99236641221374,12.091603053435113,0.9770992366412213,424,-71,2,14.683917240794768,-2991.2310894750676,0.002628,False,,False,,,,,29
96.275,4.012283694999994,0.9462890625,0.31640625,-0.0419921875,46.99236641221374,12.091603053435113,0.9770992366412213,424,-71,2,14.683917240794768,-2991.2310894750676,0.002628,False,,False,,,,,29
96.28,4.014285208999993,0.9248046875,0.339111328125,-0.0703125,41.038167938931295,8.427480916030534,-2.6564885496183206,392,-144,0,14.763018803294768,-2994.8287102718955,0.0,False,,False,,,,,29
96.28,4.016287555999995,0.9248046875,0.339111328125,-0.0703125,41.038167938931295,8.427480916030534,-2.6564885496183206,392,-144,0,14.763018803294768,-2994.8287102718955,0.0,False,,False,,,,,29
96.28,4.018287366999999,0.9248046875,0.339111328125,-0.0703125,41.038167938931295,8.427480916030534,-2.6564885496183206,392,-144,0,14.763018803294768,-2994.8287102718955,0.0,False,,False,,,,,29
96.285,4.020294213,0.952392578125,0.34228515625,-0.07177734375,42.13740458015267,7.8473282442748085,-3.2061068702290076,354,-170,4,14.856951908763518,-2999.826892659468,0.005256,False,,False,,,,,29
96.285,4.0222900799999906,0.952392578125,0.34228515625,-0.07177734375,42.13740458015267,7.8473282442748085,-3.2061068702290076,354,-170,4,14.856951908763518,-2999.826892659468,0.005256,False,,False,,,,,29
96.29,4.024296481999997,0.93798828125,0.357666015625,-0.074462890625,42.13740458015267,5.557251908396946,-4.854961832061068,310,-206,3,14.965716557201018,-3005.862524567378,0.003942,False,,False,,,,,29
96.29,4.026296032999994,0.93798828125,0.357666015625,-0.074462890625,42.13740458015267,5.557251908396946,-4.854961832061068,310,-206,3,14.965716557201018,-3005.862524567378,0.003942,False,,False,,,,,29
96.29,4.028295361999994,0.93798828125,0.357666015625,-0.074462890625,42.13740458015267,5.557251908396946,-4.854961832061068,310,-206,3,14.965716557201018,-3005.862524567378,0.003942,False,,False,,,,,29
96.295,4.0302963759999955,0.95654296875,0.345947265625,-0.078125,42.99236641221374,5.83206106870229,-4.916030534351145,259,-227,-6,15.091784672435393,-3012.634491027567,-0.007884,False,,False,,,,,29
96.295,4.032297130999993,0.95654296875,0.345947265625,-0.078125,42.99236641221374,5.83206106870229,-4.916030534351145,259,-227,-6,15.091784672435393,-3012.634491027567,-0.007884,False,,False,,,,,29
96.3,4.0342992929999895,0.96142578125,0.34765625,-0.072021484375,40.48854961832061,1.648854961832061,-7.66412213740458,202,-250,3,15.232684330638518,-3019.878246532807,0.003942,False,,False,,,,,29
96.3,4.036301547999997,0.96142578125,0.34765625,-0.072021484375,40.48854961832061,1.648854961832061,-7.66412213740458,202,-250,3,15.232684330638518,-3019.878246532807,0.003942,False,,False,,,,,29
96.3,4.038301950999994,0.96142578125,0.34765625,-0.072021484375,40.48854961832061,1.648854961832061,-7.66412213740458,202,-250,3,15.232684330638518,-3019.878246532807,0.003942,False,,False,,,,,29
96.305,4.040303186999992,0.931884765625,0.29833984375,-0.076904296875,40.732824427480914,1.7404580152671756,-7.297709923664121,145,-250,-4,15.373583988841643,-3027.378017289009,-0.005256,False,,False,,,,,29
96.305,4.042305292999998,0.931884765625,0.29833984375,-0.076904296875,40.732824427480914,1.7404580152671756,-7.297709923664121,145,-250,-4,15.373583988841643,-3027.378017289009,-0.005256,False,,False,,,,,29
96.31,4.044310195999998,0.951171875,0.31396484375,-0.04931640625,40.854961832061065,-0.061068702290076333,-7.877862595419847,89,-244,-3,15.512011723216643,-3034.974519670435,-0.003942,False,,False,,,,,29
96.31,4.046309765999993,0.951171875,0.31396484375,-0.04931640625,40.854961832061065,-0.061068702290076333,-7.877862595419847,89,-244,-3,15.512011723216643,-3034.974519670435,-0.003942,False,,False,,,,,29
96.31,4.048308464999991,0.951171875,0.31396484375,-0.04931640625,40.854961832061065,-0.061068702290076333,-7.877862595419847,89,-244,-3,15.512011723216643,-3034.974519670435,-0.003942,False,,False,,,,,29
96.315,4.0503104789999895,0.945556640625,0.32177734375,-0.04833984375,39.603053435114504,-0.24427480916030533,-9.465648854961831,30,-254,4,15.657855229076018,-3042.5401650404474,0.005256,False,,False,,,,,29
96.315,4.052311734,0.945556640625,0.32177734375,-0.04833984375,39.603053435114504,-0.24427480916030533,-9.465648854961831,30,-254,4,15.657855229076018,-3042.5401650404474,0.005256,False,,False,,,,,29
96.32000000000001,4.054312748000001,0.941650390625,0.271484375,-0.0400390625,40.06106870229007,0.549618320610687,-7.3893129770992365,-24,-236,-5,15.791339115794768,-3049.970376054752,-0.0065699999999999995,False,,False,,,,,29
96.32000000000001,4.0563139469999925,0.941650390625,0.271484375,-0.0400390625,40.06106870229007,0.549618320610687,-7.3893129770992365,-24,-236,-5,15.791339115794768,-3049.970376054752,-0.0065699999999999995,False,,False,,,,,29
96.32000000000001,4.058315923999999,0.941650390625,0.271484375,-0.0400390625,40.06106870229007,0.549618320610687,-7.3893129770992365,-24,-236,-5,15.791339115794768,-3049.970376054752,-0.0065699999999999995,False,,False,,,,,29
96.325,4.060317326999993,0.96337890625,0.3037109375,-0.03076171875,40.916030534351144,0.5801526717557252,-8.030534351145038,-68,-196,4,15.900103764232268,-3057.2100030507836,0.005256,False,,False,,,,,29
96.325,4.0623183780000005,0.96337890625,0.3037109375,-0.03076171875,40.916030534351144,0.5801526717557252,-8.030534351145038,-68,-196,4,15.900103764232268,-3057.2100030507836,0.005256,False,,False,,,,,29
96.33,4.064320613999996,0.935546875,0.247802734375,-0.044677734375,41.25190839694656,2.4732824427480917,-5.83206106870229,-106,-152,0,15.994036869701018,-3064.240703739835,0.0,False,,False,,,,,29
96.33,4.066323386999997,0.935546875,0.247802734375,-0.044677734375,41.25190839694656,2.4732824427480917,-5.83206106870229,-106,-152,0,15.994036869701018,-3064.240703739835,0.0,False,,False,,,,,29
96.33,4.068323992999993,0.935546875,0.247802734375,-0.044677734375,41.25190839694656,2.4732824427480917,-5.83206106870229,-106,-152,0,15.994036869701018,-3064.240703739835,0.0,False,,False,,,,,29
96.33500000000001,4.070325488999998,0.96923828125,0.28515625,-0.0205078125,41.6793893129771,1.5572519083969465,-6.65648854961832,-135,-124,-1,16.065722660716645,-3071.050148952503,-0.001314,False,,False,,,,,29
96.33500000000001,4.072326707000002,0.96923828125,0.28515625,-0.0205078125,41.6793893129771,1.5572519083969465,-6.65648854961832,-135,-124,-1,16.065722660716645,-3071.050148952503,-0.001314,False,,False,,,,,29
96.34,4.07432722099999,0.979736328125,0.269775390625,-0.0234375,44.030534351145036,4.305343511450381,-3.32824427480916,-151,-62,-1,16.105273441966645,-3077.641965226833,-0.001314,False,,False,,,,,29
96.34,4.076330104999997,0.979736328125,0.269775390625,-0.0234375,44.030534351145036,4.305343511450381,-3.32824427480916,-151,-62,-1,16.105273441966645,-3077.641965226833,-0.001314,False,,False,,,,,29
96.34,4.07833024899999,0.979736328125,0.269775390625,-0.0234375,44.030534351145036,4.305343511450381,-3.32824427480916,-151,-62,-1,16.105273441966645,-3077.641965226833,-0.001314,False,,False,,,,,29
96.345,4.080331706999999,0.96923828125,0.2666015625,-0.02197265625,44.854961832061065,6.015267175572519,-2.717557251908397,-151,1,0,16.105273441966645,-3084.0474084231464,0.0,False,,False,,,,,29
96.345,4.082332738999995,0.96923828125,0.2666015625,-0.02197265625,44.854961832061065,6.015267175572519,-2.717557251908397,-151,1,0,16.105273441966645,-3084.0474084231464,0.0,False,,False,,,,,29
96.35000000000001,4.084334178999995,0.964111328125,0.2724609375,-0.02783203125,42.717557251908396,6.5038167938931295,-3.1755725190839694,-152,-2,-3,16.10774536579477,-3090.2828117807253,-0.003942,False,,False,,,,,29
96.35000000000001,4.086336525999997,0.964111328125,0.2724609375,-0.02783203125,42.717557251908396,6.5038167938931295,-3.1755725190839694,-152,-2,-3,16.10774536579477,-3090.2828117807253,-0.003942,False,,False,,,,,29
96.35000000000001,4.088337522000003,0.964111328125,0.2724609375,-0.02783203125,42.717557251908396,6.5038167938931295,-3.1755725190839694,-152,-2,-3,16.10774536579477,-3090.2828117807253,-0.003942,False,,False,,,,,29
96.355,4.090338739999993,0.949951171875,0.278564453125,-0.0322265625,39.541984732824424,6.809160305343511,-3.6946564885496183,-149,3,0,16.100329594310395,-3096.3177593999926,0.0,False,,False,,,,,29
96.355,4.092340919999998,0.949951171875,0.278564453125,-0.0322265625,39.541984732824424,6.809160305343511,-3.6946564885496183,-149,3,0,16.100329594310395,-3096.3177593999926,0.0,False,,False,,,,,29
96.36,4.094341174999997,0.930419921875,0.30908203125,-0.03369140625,37.74045801526717,8.030534351145038,-5.312977099236641,-150,2,2,16.10280151813852,-3102.1028340328435,0.002628,False,,False,,,,,29
96.36,4.096953972999998,0.930419921875,0.30908203125,-0.03369140625,37.74045801526717,8.030534351145038,-5.312977099236641,-150,2,2,16.10280151813852,-3102.1028340328435,0.002628,False,,False,,,,,29
96.36500000000001,4.098950598999991,0.92724609375,0.317138671875,-0.037353515625,37.862595419847324,8.916030534351144,-5.740458015267175,-151,-2,5,16.105273441966645,-3107.587750778213,0.0065699999999999995,False,,False,,,,,29
96.36500000000001,4.100951705999989,0.92724609375,0.317138671875,-0.037353515625,37.862595419847324,8.916030534351144,-5.740458015267175,-151,-2,5,16.105273441966645,-3107.587750778213,0.0065699999999999995,False,,False,,,,,29
96.36500000000001,4.102953459999995,0.92724609375,0.317138671875,-0.037353515625,37.862595419847324,8.916030534351144,-5.740458015267175,-151,-2,5,16.105273441966645,-3107.587750778213,0.0065699999999999995,False,,False,,,,,29
96.37,4.104954825999997,0.9208984375,0.318359375,-0.046142578125,37.46564885496183,9.954198473282442,-5.740458015267175,-148,0,0,16.09785767048227,-3112.741922361321,0.0,False,,False,,,,,29
96.37,4.1069567839999905,0.9208984375,0.318359375,-0.046142578125,37.46564885496183,9.954198473282442,-5.740458015267175,-148,0,0,16.09785767048227,-3112.741922361321,0.0,False,,False,,,,,29
96.375,4.109121922999989,0.922607421875,0.31884765625,-0.0419921875,37.37404580152672,10.045801526717558,-6.015267175572519,-145,12,-7,16.090441898997895,-3117.5588571249205,-0.009198,False,,False,,,,,29
96.375,4.111127547999999,0.922607421875,0.31884765625,-0.0419921875,37.37404580152672,10.045801526717558,-6.015267175572519,-145,12,-7,16.090441898997895,-3117.5588571249205,-0.009198,False,,False,,,,,29
96.375,4.113125284999995,0.922607421875,0.31884765625,-0.0419921875,37.37404580152672,10.045801526717558,-6.015267175572519,-145,12,-7,16.090441898997895,-3117.5588571249205,-0.009198,False,,False,,,,,29
96.38,4.115126298999996,0.924560546875,0.3232421875,-0.0595703125,37.404580152671755,11.358778625954198,-6.381679389312977,-144,14,-3,16.08796997516977,-3122.027262805098,-0.003942,False,,False,,,,,29
96.38,4.117127404999991,0.924560546875,0.3232421875,-0.0595703125,37.404580152671755,11.358778625954198,-6.381679389312977,-144,14,-3,16.08796997516977,-3122.027262805098,-0.003942,False,,False,,,,,29
96.385,4.119129362999999,0.926513671875,0.32666015625,-0.070556640625,37.038167938931295,10.748091603053435,-6.595419847328244,-139,18,2,16.075610356029145,-3126.1391537626614,0.002628,False,,False,,,,,29
96.385,4.121130691999994,0.926513671875,0.32666015625,-0.070556640625,37.038167938931295,10.748091603053435,-6.595419847328244,-139,18,2,16.075610356029145,-3126.1391537626614,0.002628,False,,False,,,,,29
96.385,4.123132076999994,0.926513671875,0.32666015625,-0.070556640625,37.038167938931295,10.748091603053435,-6.595419847328244,-139,18,2,16.075610356029145,-3126.1391537626614,0.002628,False,,False,,,,,29
96.39,4.12513346099999,0.916748046875,0.336669921875,-0.06591796875,37.343511450381676,11.114503816793892,-6.65648854961832,-136,18,4,16.06819458454477,-3129.900171314795,0.005256,False,,False,,,,,29
96.39,4.1271350119999966,0.916748046875,0.336669921875,-0.06591796875,37.343511450381676,11.114503816793892,-6.65648854961832,-136,18,4,16.06819458454477,-3129.900171314795,0.005256,False,,False,,,,,29
96.395,4.129136711000001,0.92724609375,0.34423828125,-0.072265625,37.587786259541986,11.114503816793892,-7.0534351145038165,-134,6,0,16.06325073688852,-3133.3111687548703,0.0,False,,False,,,,,29
96.395,4.131137557999992,0.92724609375,0.34423828125,-0.072265625,37.587786259541986,11.114503816793892,-7.0534351145038165,-134,6,0,16.06325073688852,-3133.3111687548703,0.0,False,,False,,,,,29
96.395,4.133140053999995,0.92724609375,0.34423828125,-0.072265625,37.587786259541986,11.114503816793892,-7.0534351145038165,-134,6,0,16.06325073688852,-3133.3111687548703,0.0,False,,False,,,,,29
96.4,4.135140030999992,0.9228515625,0.35595703125,-0.068603515625,37.49618320610687,10.259541984732824,-7.3893129770992365,-134,-1,7,16.06325073688852,-3136.3689785690535,0.009198,False,,False,,,,,29
96.4,4.137140860000002,0.9228515625,0.35595703125,-0.068603515625,37.49618320610687,10.259541984732824,-7.3893129770992365,-134,-1,7,16.06325073688852,-3136.3689785690535,0.009198,False,,False,,,,,29
96.405,4.139142522,0.929931640625,0.361572265625,-0.072021484375,37.9236641221374,9.83206106870229,-7.358778625954198,-133,-3,4,16.060778813060395,-3139.079646513569,0.005256,False,,False,,,,,29
96.405,4.141144127999993,0.929931640625,0.361572265625,-0.072021484375,37.9236641221374,9.83206106870229,-7.358778625954198,-133,-3,4,16.060778813060395,-3139.079646513569,0.005256,False,,False,,,,,29
96.405,4.14314573499999,0.929931640625,0.361572265625,-0.072021484375,37.9236641221374,9.83206106870229,-7.358778625954198,-133,-3,4,16.060778813060395,-3139.079646513569,0.005256,False,,False,,,,,29
96.41,4.145146452999995,0.927978515625,0.366455078125,-0.073486328125,39.05343511450381,9.954198473282442,-7.480916030534351,-132,3,5,16.05830688923227,-3141.4604249504973,0.0065699999999999995,False,,False,,,,,29
96.41,4.147148262999991,0.927978515625,0.366455078125,-0.073486328125,39.05343511450381,9.954198473282442,-7.480916030534351,-132,3,5,16.05830688923227,-3141.4604249504973,0.0065699999999999995,False,,False,,,,,29
96.415,4.149150202999991,0.93115234375,0.3740234375,-0.0712890625,39.81679389312977,10.015267175572518,-7.3893129770992365,-133,0,4,16.060778813060395,-3143.52874575554,0.005256,False,,False,,,,,29
96.415,4.151150790999992,0.93115234375,0.3740234375,-0.0712890625,39.81679389312977,10.015267175572518,-7.3893129770992365,-133,0,4,16.060778813060395,-3143.52874575554,0.005256,False,,False,,,,,29
96.415,4.15315300799999,0.93115234375,0.3740234375,-0.0712890625,39.81679389312977,10.015267175572518,-7.3893129770992365,-133,0,4,16.060778813060395,-3143.52874575554,0.005256,False,,False,,,,,29
96.42,4.155154280999994,0.93896484375,0.379638671875,-0.067626953125,41.404580152671755,10.076335877862595,-7.297709923664121,-133,3,3,16.060778813060395,-3145.3001480549337,0.003942,False,,False,,,,,29
96.42,4.157156146999995,0.93896484375,0.379638671875,-0.067626953125,41.404580152671755,10.076335877862595,-7.297709923664121,-133,3,3,16.060778813060395,-3145.3001480549337,0.003942,False,,False,,,,,29
96.425,4.159157790999998,0.939697265625,0.384765625,-0.06689453125,41.77099236641221,10.595419847328245,-7.175572519083969,-133,-5,2,16.060778813060395,-3146.7973138096595,0.002628,False,,False,,,,,29
96.425,4.161158841999992,0.939697265625,0.384765625,-0.06689453125,41.77099236641221,10.595419847328245,-7.175572519083969,-133,-5,2,16.060778813060395,-3146.7973138096595,0.002628,False,,False,,,,,29
96.425,4.163160097000002,0.939697265625,0.384765625,-0.06689453125,41.77099236641221,10.595419847328245,-7.175572519083969,-133,-5,2,16.060778813060395,-3146.7973138096595,0.002628,False,,False,,,,,29
96.43,4.165161888,0.944580078125,0.390625,-0.073974609375,42.229007633587784,10.473282442748092,-7.022900763358779,-133,-1,5,16.060778813060395,-3148.0449952350973,0.0065699999999999995,False,,False,,,,,29
96.43,4.167163697999996,0.944580078125,0.390625,-0.073974609375,42.229007633587784,10.473282442748092,-7.022900763358779,-133,-1,5,16.060778813060395,-3148.0449952350973,0.0065699999999999995,False,,False,,,,,29
96.435,4.169164526999992,0.943359375,0.397705078125,-0.072265625,43.57251908396946,11.114503816793892,-6.595419847328244,-133,3,4,16.060778813060395,-3149.0657381387273,0.005256,False,,False,,,,,29
96.435,4.1711662630000035,0.943359375,0.397705078125,-0.072265625,43.57251908396946,11.114503816793892,-6.595419847328244,-133,3,4,16.060778813060395,-3149.0657381387273,0.005256,False,,False,,,,,29
96.435,4.173167518,0.943359375,0.397705078125,-0.072265625,43.57251908396946,11.114503816793892,-6.595419847328244,-133,3,4,16.060778813060395,-3149.0657381387273,0.005256,False,,False,,,,,29
96.44,4.175167903000002,0.94775390625,0.40380859375,-0.071044921875,45.55725190839694,11.81679389312977,-6.229007633587786,-133,-3,1,16.060778813060395,-3149.8817050531466,0.001314,False,,False,,,,,29
96.44,4.177169360999997,0.94775390625,0.40380859375,-0.071044921875,45.55725190839694,11.81679389312977,-6.229007633587786,-133,-3,1,16.060778813060395,-3149.8817050531466,0.001314,False,,False,,,,,29
96.44500000000001,4.179171929999995,0.94775390625,0.40185546875,-0.0703125,46.778625954198475,12.122137404580153,-5.984732824427481,-133,0,2,16.060778813060395,-3150.5144165776182,0.002628,False,,False,,,,,29
96.44500000000001,4.1811727409999975,0.94775390625,0.40185546875,-0.0703125,46.778625954198475,12.122137404580153,-5.984732824427481,-133,0,2,16.060778813060395,-3150.5144165776182,0.002628,False,,False,,,,,29
96.44500000000001,4.183177401999998,0.94775390625,0.40185546875,-0.0703125,46.778625954198475,12.122137404580153,-5.984732824427481,-133,0,2,16.060778813060395,-3150.5144165776182,0.002628,False,,False,,,,,29
96.45,4.185182693999991,0.945068359375,0.40185546875,-0.06640625,47.41984732824427,12.610687022900763,-5.526717557251908,-133,3,4,16.060778813060395,-3150.984544133569,0.005256,False,,False,,,,,29
96.45,4.187177559999995,0.945068359375,0.40185546875,-0.06640625,47.41984732824427,12.610687022900763,-5.526717557251908,-133,3,4,16.060778813060395,-3150.984544133569,0.005256,False,,False,,,,,29
96.455,4.189178666999993,0.938720703125,0.404052734375,-0.0654296875,48.671755725190835,13.099236641221374,-5.251908396946565,-134,0,-3,16.06325073688852,-3151.3099582610353,-0.003942,False,,False,,,,,29
96.455,4.191180106999994,0.938720703125,0.404052734375,-0.0654296875,48.671755725190835,13.099236641221374,-5.251908396946565,-134,0,-3,16.06325073688852,-3151.3099582610353,-0.003942,False,,False,,,,,29
96.455,4.193180675999997,0.938720703125,0.404052734375,-0.0654296875,48.671755725190835,13.099236641221374,-5.251908396946565,-134,0,-3,16.06325073688852,-3151.3099582610353,-0.003942,False,,False,,,,,29
96.46000000000001,4.19518378299999,0.92822265625,0.3955078125,-0.06103515625,50.68702290076336,14.106870229007633,-4.67175572519084,-133,2,-4,16.060778813060395,-3151.509506776163,-0.005256,False,,False,,,,,29
96.46000000000001,4.197184167000003,0.92822265625,0.3955078125,-0.06103515625,50.68702290076336,14.106870229007633,-4.67175572519084,-133,2,-4,16.060778813060395,-3151.509506776163,-0.005256,False,,False,,,,,29
96.465,4.199187107,0.9228515625,0.390869140625,-0.0595703125,51.69465648854962,14.778625954198473,-4.488549618320611,-133,4,9,16.060778813060395,-3151.604373113745,0.011826,False,,False,,,,,29
96.465,4.201185584000001,0.9228515625,0.390869140625,-0.0595703125,51.69465648854962,14.778625954198473,-4.488549618320611,-133,4,9,16.060778813060395,-3151.604373113745,0.011826,False,,False,,,,,29
96.465,4.2031876169999975,0.9228515625,0.390869140625,-0.0595703125,51.69465648854962,14.778625954198473,-4.488549618320611,-133,4,9,16.060778813060395,-3151.604373113745,0.011826,False,,False,,,,,29
96.47,4.205188538000002,0.917236328125,0.38427734375,-0.062255859375,52.12213740458015,15.206106870229007,-4.2748091603053435,-134,-1,6,16.06325073688852,-3151.6084366462924,0.007884,False,,False,,,,,29
96.47,4.207189940999996,0.917236328125,0.38427734375,-0.062255859375,52.12213740458015,15.206106870229007,-4.2748091603053435,-134,-1,6,16.06325073688852,-3151.6084366462924,0.007884,False,,False,,,,,29
96.47500000000001,4.209191695999991,0.9111328125,0.380126953125,-0.065673828125,53.25190839694656,15.725190839694656,-4.030534351145038,-134,-1,0,16.06325073688852,-3151.532841860965,0.0,False,,False,,,,,29
96.47500000000001,4.211193320999996,0.9111328125,0.380126953125,-0.065673828125,53.25190839694656,15.725190839694656,-4.030534351145038,-134,-1,0,16.06325073688852,-3151.532841860965,0.0,False,,False,,,,,29
96.47500000000001,4.2131949460000016,0.9111328125,0.380126953125,-0.065673828125,53.25190839694656,15.725190839694656,-4.030534351145038,-134,-1,0,16.06325073688852,-3151.532841860965,0.0,False,,False,,,,,29
96.48,4.215196570999993,0.898193359375,0.353515625,-0.05810546875,54.83969465648855,16.702290076335878,-3.4198473282442747,-136,-5,3,16.06819458454477,-3151.38986321029,0.003942,False,,False,,,,,29
96.48,4.217197565999996,0.898193359375,0.353515625,-0.05810546875,54.83969465648855,16.702290076335878,-3.4198473282442747,-136,-5,3,16.06819458454477,-3151.38986321029,0.003942,False,,False,,,,,29
96.485,4.219198598999995,0.89599609375,0.33837890625,-0.064453125,54.93129770992366,17.709923664122137,-3.297709923664122,-136,-9,10,16.06819458454477,-3151.1907528123656,0.013139999999999999,False,,False,,,,,29
96.485,4.221199872,0.89599609375,0.33837890625,-0.064453125,54.93129770992366,17.709923664122137,-3.297709923664122,-136,-9,10,16.06819458454477,-3151.1907528123656,0.013139999999999999,False,,False,,,,,29
96.485,4.223201885999998,0.89599609375,0.33837890625,-0.064453125,54.93129770992366,17.709923664122137,-3.297709923664122,-136,-9,10,16.06819458454477,-3151.1907528123656,0.013139999999999999,False,,False,,,,,29
96.49000000000001,4.225204011000002,0.8974609375,0.328857421875,-0.059814453125,54.87022900763358,17.98473282442748,-2.687022900763359,-138,-10,2,16.07313843220102,-3150.947534403382,0.002628,False,,False,,,,,29
96.49000000000001,4.227205525000002,0.8974609375,0.328857421875,-0.059814453125,54.87022900763358,17.98473282442748,-2.687022900763359,-138,-10,2,16.07313843220102,-3150.947534403382,0.002628,False,,False,,,,,29
96.495,4.229207353999996,0.889404296875,0.3203125,-0.052734375,55.786259541984734,17.862595419847327,-2.4122137404580153,-139,-1,-5,16.075610356029145,-3150.669122511131,-0.0065699999999999995,False,,False,,,,,29
96.495,4.2312080159999965,0.889404296875,0.3203125,-0.052734375,55.786259541984734,17.862595419847327,-2.4122137404580153,-139,-1,-5,16.075610356029145,-3150.669122511131,-0.0065699999999999995,False,,False,,,,,29
96.495,4.233209806999994,0.889404296875,0.3203125,-0.052734375,55.786259541984734,17.862595419847327,-2.4122137404580153,-139,-1,-5,16.075610356029145,-3150.669122511131,-0.0065699999999999995,False,,False,,,,,29
96.5,4.2352107469999964,0.8818359375,0.3076171875,-0.05224609375,56.76335877862595,18.595419847328245,-2.259541984732824,-141,-7,-10,16.080554203685395,-3150.3634900531238,-0.013139999999999999,False,,False,,,,,29
96.5,4.237212186999997,0.8818359375,0.3076171875,-0.05224609375,56.76335877862595,18.595419847328245,-2.259541984732824,-141,-7,-10,16.080554203685395,-3150.3634900531238,-0.013139999999999999,False,,False,,,,,29
96.505,4.239214145999995,0.880615234375,0.29541015625,-0.0576171875,56.82442748091603,18.931297709923662,-2.259541984732824,-143,-4,1,16.085498051341645,-3150.0377061464887,0.001314,False,,False,,,,,29
96.505,4.2412152520000035,0.880615234375,0.29541015625,-0.0576171875,56.82442748091603,18.931297709923662,-2.259541984732824,-143,-4,1,16.085498051341645,-3150.0377061464887,0.001314,False,,False,,,,,29
96.505,4.243216488000002,0.880615234375,0.29541015625,-0.0576171875,56.82442748091603,18.931297709923662,-2.259541984732824,-143,-4,1,16.085498051341645,-3150.0377061464887,0.001314,False,,False,,,,,29
96.51,4.245217854000003,0.8837890625,0.2822265625,-0.05810546875,56.61068702290076,18.900763358778626,-2.1068702290076335,-146,-8,0,16.09291382282602,-3149.6961903506603,0.0,False,,False,,,,,29
96.51,4.2472190350000005,0.8837890625,0.2822265625,-0.05810546875,56.61068702290076,18.900763358778626,-2.1068702290076335,-146,-8,0,16.09291382282602,-3149.6961903506603,0.0,False,,False,,,,,29
96.515,4.249220882000003,0.88916015625,0.27783203125,-0.058349609375,56.06106870229007,18.80916030534351,-2.229007633587786,-155,-29,0,16.115161137279145,-3149.3321275182707,0.0,False,,False,,,,,29
96.515,4.251222136999999,0.88916015625,0.27783203125,-0.058349609375,56.06106870229007,18.80916030534351,-2.229007633587786,-155,-29,0,16.115161137279145,-3149.3321275182707,0.0,False,,False,,,,,29
96.515,4.253223613999992,0.88916015625,0.27783203125,-0.058349609375,56.06106870229007,18.80916030534351,-2.229007633587786,-155,-29,0,16.115161137279145,-3149.3321275182707,0.0,False,,False,,,,,29
96.52,4.255225460999995,0.880126953125,0.29296875,-0.063232421875,51.48091603053435,17.251908396946565,-5.099236641221374,-171,-72,0,16.154711918529145,-3148.918652715797,0.0,False,,False,,,,,29
96.52,4.257226344999992,0.880126953125,0.29296875,-0.063232421875,51.48091603053435,17.251908396946565,-5.099236641221374,-171,-72,0,16.154711918529145,-3148.918652715797,0.0,False,,False,,,,,29
96.525,4.259227858999992,0.864013671875,0.3017578125,-0.070068359375,47.45038167938931,15.694656488549617,-6.687022900763359,-201,-138,-3,16.228869633372895,-3148.408923873137,-0.003942,False,,False,,,,,29
96.525,4.261229631999996,0.864013671875,0.3017578125,-0.070068359375,47.45038167938931,15.694656488549617,-6.687022900763359,-201,-138,-3,16.228869633372895,-3148.408923873137,-0.003942,False,,False,,,,,29
96.525,4.263231294999997,0.864013671875,0.3017578125,-0.070068359375,47.45038167938931,15.694656488549617,-6.687022900763359,-201,-138,-3,16.228869633372895,-3148.408923873137,-0.003942,False,,False,,,,,29
96.53,4.2652321789999945,0.87744140625,0.301513671875,-0.0693359375,47.32824427480916,15.419847328244273,-7.297709923664121,-239,-170,-3,16.322802738841645,-3147.749005537073,-0.003942,False,,False,,,,,29
96.53,4.267233562999991,0.87744140625,0.301513671875,-0.0693359375,47.32824427480916,15.419847328244273,-7.297709923664121,-239,-170,-3,16.322802738841645,-3147.749005537073,-0.003942,False,,False,,,,,29
96.535,4.269234965999999,0.86767578125,0.329345703125,-0.069091796875,47.29770992366412,13.618320610687022,-9.587786259541984,-285,-204,0,16.436511234935395,-3146.9048722107655,0.0,False,,False,,,,,29
96.535,4.271236646999995,0.86767578125,0.329345703125,-0.069091796875,47.29770992366412,13.618320610687022,-9.587786259541984,-285,-204,0,16.436511234935395,-3146.9048722107655,0.0,False,,False,,,,,29
96.535,4.273236827999995,0.86767578125,0.329345703125,-0.069091796875,47.29770992366412,13.618320610687022,-9.587786259541984,-285,-204,0,16.436511234935395,-3146.9048722107655,0.0,False,,False,,,,,29
96.54,4.2752388409999895,0.880126953125,0.30078125,-0.057373046875,48.091603053435115,13.129770992366412,-10.50381679389313,-336,-221,-4,16.56257935016977,-3145.866821582154,-0.005256,False,,False,,,,,29
96.54,4.27723979999999,0.880126953125,0.30078125,-0.057373046875,48.091603053435115,13.129770992366412,-10.50381679389313,-336,-221,-4,16.56257935016977,-3145.866821582154,-0.005256,False,,False,,,,,29
96.545,4.279244720999998,0.868408203125,0.27294921875,-0.0625,46.778625954198475,14.198473282442748,-11.083969465648854,-391,-247,-4,16.698535160716645,-3144.6420738095812,-0.005256,False,,False,,,,,29
96.545,4.281242679999991,0.868408203125,0.27294921875,-0.0625,46.778625954198475,14.198473282442748,-11.083969465648854,-391,-247,-4,16.698535160716645,-3144.6420738095812,-0.005256,False,,False,,,,,29
96.545,4.283248434000001,0.868408203125,0.27294921875,-0.0625,46.778625954198475,14.198473282442748,-11.083969465648854,-391,-247,-4,16.698535160716645,-3144.6420738095812,-0.005256,False,,False,,,,,29
96.55,4.285245410999991,0.866943359375,0.236328125,-0.067626953125,44.88549618320611,13.038167938931297,-10.473282442748092,-449,-253,-2,16.841906742747895,-3143.250121132577,-0.002628,False,,False,,,,,29
96.55,4.28724686999999,0.866943359375,0.236328125,-0.067626953125,44.88549618320611,13.038167938931297,-10.473282442748092,-449,-253,-2,16.841906742747895,-3143.250121132577,-0.002628,False,,False,,,,,29
96.555,4.289248346999997,0.91064453125,0.260498046875,-0.049560546875,45.862595419847324,13.618320610687022,-10.13740458015267,-502,-230,-1,16.97291870563852,-3141.7293998938676,-0.001314,False,,False,,,,,29
96.555,4.291254840999997,0.91064453125,0.260498046875,-0.049560546875,45.862595419847324,13.618320610687022,-10.13740458015267,-502,-230,-1,16.97291870563852,-3141.7293998938676,-0.001314,False,,False,,,,,29
96.555,4.293250763999993,0.91064453125,0.260498046875,-0.049560546875,45.862595419847324,13.618320610687022,-10.13740458015267,-502,-230,-1,16.97291870563852,-3141.7293998938676,-0.001314,False,,False,,,,,29
96.56,4.295252110999996,0.897705078125,0.20263671875,-0.055419921875,47.05343511450381,15.083969465648854,-8.427480916030534,-553,-218,-6,17.098986820872895,-3140.139020787509,-0.007884,False,,False,,,,,29
96.56,4.2972534399999915,0.897705078125,0.20263671875,-0.055419921875,47.05343511450381,15.083969465648854,-8.427480916030534,-553,-218,-6,17.098986820872895,-3140.139020787509,-0.007884,False,,False,,,,,29
96.565,4.299255064999997,0.9306640625,0.220458984375,-0.040771484375,46.83969465648855,15.511450381679388,-8.396946564885496,-599,-195,-1,17.212695316966645,-3138.538431837302,-0.001314,False,,False,,,,,29
96.565,4.301256374999994,0.9306640625,0.220458984375,-0.040771484375,46.83969465648855,15.511450381679388,-8.396946564885496,-599,-195,-1,17.212695316966645,-3138.538431837302,-0.001314,False,,False,,,,,29
96.565,4.303257795999997,0.9306640625,0.220458984375,-0.040771484375,46.83969465648855,15.511450381679388,-8.396946564885496,-599,-195,-1,17.212695316966645,-3138.538431837302,-0.001314,False,,False,,,,,29
96.57000000000001,4.305258920999989,0.911376953125,0.169677734375,-0.051513671875,46.62595419847328,17.19083969465649,-6.65648854961832,-633,-149,0,17.296740727122895,-3136.9954547868265,0.0,False,,False,,,,,29
96.57000000000001,4.307260545999995,0.911376953125,0.169677734375,-0.051513671875,46.62595419847328,17.19083969465649,-6.65648854961832,-633,-149,0,17.296740727122895,-3136.9954547868265,0.0,False,,False,,,,,29
96.575,4.309262042,0.944580078125,0.21533203125,-0.037841796875,44.916030534351144,16.0,-8.305343511450381,-671,-158,-5,17.390673832591645,-3135.567824651687,-0.0065699999999999995,False,,False,,,,,29
96.575,4.311263834000002,0.944580078125,0.21533203125,-0.037841796875,44.916030534351144,16.0,-8.305343511450381,-671,-158,-5,17.390673832591645,-3135.567824651687,-0.0065699999999999995,False,,False,,,,,29
96.575,4.313264625000002,0.944580078125,0.21533203125,-0.037841796875,44.916030534351144,16.0,-8.305343511450381,-671,-158,-5,17.390673832591645,-3135.567824651687,-0.0065699999999999995,False,,False,,,,,29
96.58,4.315266027999996,0.943115234375,0.21240234375,-0.052490234375,43.05343511450381,17.61832061068702,-7.419847328244274,-703,-142,1,17.469775395091645,-3134.2753475659797,0.001314,False,,False,,,,,29
96.58,4.317268467999995,0.943115234375,0.21240234375,-0.052490234375,43.05343511450381,17.61832061068702,-7.419847328244274,-703,-142,1,17.469775395091645,-3134.2753475659797,0.001314,False,,False,,,,,29
96.58500000000001,4.319270371000002,0.91845703125,0.18359375,-0.071044921875,40.854961832061065,18.106870229007633,-6.015267175572519,-736,-150,2,17.55134888141977,-3133.1272754240154,0.002628,False,,False,,,,,29
96.58500000000001,4.321274291999998,0.91845703125,0.18359375,-0.071044921875,40.854961832061065,18.106870229007633,-6.015267175572519,-736,-150,2,17.55134888141977,-3133.1272754240154,0.002628,False,,False,,,,,29
96.58500000000001,4.3232716950000025,0.91845703125,0.18359375,-0.071044921875,40.854961832061065,18.106870229007633,-6.015267175572519,-736,-150,2,17.55134888141977,-3133.1272754240154,0.002628,False,,False,,,,,29
96.59,4.325272745999996,0.960205078125,0.185791015625,-0.05810546875,43.48091603053435,18.99236641221374,-4.67175572519084,-763,-113,-5,17.618090824779145,-3132.134633299558,-0.0065699999999999995,False,,False,,,,,29
96.59,4.327274500999991,0.960205078125,0.185791015625,-0.05810546875,43.48091603053435,18.99236641221374,-4.67175572519084,-763,-113,-5,17.618090824779145,-3132.134633299558,-0.0065699999999999995,False,,False,,,,,29
96.595,4.329276143999991,0.9423828125,0.19677734375,-0.060302734375,41.89312977099237,18.015267175572518,-5.587786259541985,-790,-122,1,17.68483276813852,-3131.3061900142125,0.001314,False,,False,,,,,29
96.595,4.3312775839999915,0.9423828125,0.19677734375,-0.060302734375,41.89312977099237,18.015267175572518,-5.587786259541985,-790,-122,1,17.68483276813852,-3131.3061900142125,0.001314,False,,False,,,,,29
96.595,4.333279339000001,0.9423828125,0.19677734375,-0.060302734375,41.89312977099237,18.015267175572518,-5.587786259541985,-790,-122,1,17.68483276813852,-3131.3061900142125,0.001314,False,,False,,,,,29
96.60000000000001,4.335280501,0.98193359375,0.183837890625,-0.071533203125,40.42748091603053,17.0381679389313,-3.3893129770992365,-811,-95,0,17.736743168529145,-3130.648698465063,0.0,False,,False,,,,,29
96.60000000000001,4.337281977999993,0.98193359375,0.183837890625,-0.071533203125,40.42748091603053,17.0381679389313,-3.3893129770992365,-811,-95,0,17.736743168529145,-3130.648698465063,0.0,False,,False,,,,,29
96.605,4.339282213999994,0.956298828125,0.20263671875,-0.0751953125,39.02290076335878,16.061068702290076,-4.793893129770992,-831,-87,-4,17.786181645091645,-3130.1671260268035,-0.005256,False,,False,,,,,29
96.605,4.341283950999994,0.956298828125,0.20263671875,-0.0751953125,39.02290076335878,16.061068702290076,-4.793893129770992,-831,-87,-4,17.786181645091645,-3130.1671260268035,-0.005256,False,,False,,,,,29
96.605,4.343285371999997,0.956298828125,0.20263671875,-0.0751953125,39.02290076335878,16.061068702290076,-4.793893129770992,-831,-87,-4,17.786181645091645,-3130.1671260268035,-0.005256,False,,False,,,,,29
96.61,4.345290403999996,0.947998046875,0.197265625,-0.084228515625,35.541984732824424,15.633587786259541,-4.7328244274809155,-856,-105,-2,17.84797974079477,-3129.8451777608116,-0.002628,False,,False,,,,,29
96.61,4.347288121999995,0.947998046875,0.197265625,-0.084228515625,35.541984732824424,15.633587786259541,-4.7328244274809155,-856,-105,-2,17.84797974079477,-3129.8451777608116,-0.002628,False,,False,,,,,29
96.61500000000001,4.3492890990000035,0.976806640625,0.181640625,-0.074951171875,36.42748091603053,15.84732824427481,-3.145038167938931,-871,-58,-2,17.885058598216645,-3129.66331840344,-0.002628,False,,False,,,,,29
96.61500000000001,4.35129011299999,0.976806640625,0.181640625,-0.074951171875,36.42748091603053,15.84732824427481,-3.145038167938931,-871,-58,-2,17.885058598216645,-3129.66331840344,-0.002628,False,,False,,,,,29
96.61500000000001,4.3532921639999955,0.976806640625,0.181640625,-0.074951171875,36.42748091603053,15.84732824427481,-3.145038167938931,-871,-58,-2,17.885058598216645,-3129.66331840344,-0.002628,False,,False,,,,,29
96.62,4.355292844999994,0.98388671875,0.160888671875,-0.06640625,38.351145038167935,17.679389312977097,-1.5877862595419847,-873,-5,4,17.890002445872895,-3129.6515075732436,0.005256,False,,False,,,,,29
96.62,4.357295117999996,0.98388671875,0.160888671875,-0.06640625,38.351145038167935,17.679389312977097,-1.5877862595419847,-873,-5,4,17.890002445872895,-3129.6515075732436,0.005256,False,,False,,,,,29
96.625,4.359296538999999,0.986328125,0.1591796875,-0.061767578125,35.81679389312977,17.709923664122137,-2.229007633587786,-872,8,0,17.88753052204477,-3129.852059012625,0.0,False,,False,,,,,29
96.625,4.36129725699999,0.986328125,0.1591796875,-0.061767578125,35.81679389312977,17.709923664122137,-2.229007633587786,-872,8,0,17.88753052204477,-3129.852059012625,0.0,False,,False,,,,,29
96.625,4.363302918000002,0.986328125,0.1591796875,-0.061767578125,35.81679389312977,17.709923664122137,-2.229007633587786,-872,8,0,17.88753052204477,-3129.852059012625,0.0,False,,False,,,,,29
96.63,4.365300785000002,0.965576171875,0.155517578125,-0.066650390625,32.48854961832061,17.61832061068702,-2.5343511450381677,-867,13,-1,17.875170902904145,-3130.2686725096246,-0.001314,False,,False,,,,,29
96.63,4.367302131999992,0.965576171875,0.155517578125,-0.066650390625,32.48854961832061,17.61832061068702,-2.5343511450381677,-867,13,-1,17.875170902904145,-3130.2686725096246,-0.001314,False,,False,,,,,29
96.635,4.369303442000003,0.9599609375,0.173583984375,-0.064208984375,29.954198473282442,17.862595419847327,-2.717557251908397,-865,14,3,17.870227055247895,-3130.8744578644946,0.003942,False,,False,,,,,29
96.635,4.371304807999991,0.9599609375,0.173583984375,-0.064208984375,29.954198473282442,17.862595419847327,-2.717557251908397,-865,14,3,17.870227055247895,-3130.8744578644946,0.003942,False,,False,,,,,29
96.635,4.3733068960000026,0.9599609375,0.173583984375,-0.064208984375,29.954198473282442,17.862595419847327,-2.717557251908397,-865,14,3,17.870227055247895,-3130.8744578644946,0.003942,False,,False,,,,,29
96.64,4.375308446999995,0.935791015625,0.179931640625,-0.058349609375,28.458015267175572,18.381679389312975,-2.748091603053435,-866,-2,4,17.87269897907602,-3131.6208860603533,0.005256,False,,False,,,,,29
96.65,4.386058911999996,0.926025390625,0.170166015625,-0.078857421875,25.038167938931295,18.931297709923662,-2.9923664122137406,-866,5,0,17.87269897907602,-3126.7622864807936,0.0,False,,False,,,,,29
96.65,4.388052704999993,0.926025390625,0.170166015625,-0.078857421875,25.038167938931295,18.931297709923662,-2.9923664122137406,-866,5,0,17.87269897907602,-3126.7622864807936,0.0,False,,False,,,,,29
96.655,4.390054237000001,0.932861328125,0.172607421875,-0.078125,23.389312977099237,18.47328244274809,-2.9618320610687023,-867,-5,-3,17.875170902904145,-3111.5804306385403,-0.003942,False,,False,,,,,29
96.655,4.392057158,0.932861328125,0.172607421875,-0.078125,23.389312977099237,18.47328244274809,-2.9618320610687023,-867,-5,-3,17.875170902904145,-3111.5804306385403,-0.003942,False,,False,,,,,29
96.66,4.39405661699999,0.91552734375,0.18359375,-0.0888671875,21.2824427480916,19.14503816793893,-3.0229007633587783,-866,0,-7,17.87269897907602,-3093.6754940099518,-0.009198,False,,False,,,,,29
96.66,4.396060038000002,0.91552734375,0.18359375,-0.0888671875,21.2824427480916,19.14503816793893,-3.0229007633587783,-866,0,-7,17.87269897907602,-3093.6754940099518,-0.009198,False,,False,,,,,29
96.66,4.398059848999992,0.91552734375,0.18359375,-0.0888671875,21.2824427480916,19.14503816793893,-3.0229007633587783,-866,0,-7,17.87269897907602,-3093.6754940099518,-0.009198,False,,False,,,,,29
96.665,4.400061288999993,0.92333984375,0.182373046875,-0.079345703125,20.702290076335878,19.14503816793893,-2.6564885496183206,-864,9,-2,17.86775513141977,-3079.4550240880208,-0.002628,False,,False,,,,,30
96.665,4.402062913999998,0.92333984375,0.182373046875,-0.079345703125,20.702290076335878,19.14503816793893,-2.6564885496183206,-864,9,-2,17.86775513141977,-3079.4550240880208,-0.002628,False,,False,,,,,30
96.67,4.404064778999995,0.917236328125,0.176513671875,-0.075439453125,20.0,19.114503816793892,-2.5343511450381677,-862,8,1,17.86281128376352,-3068.5322921564025,0.001314,False,,False,,,,,30
96.67,4.4060673669999915,0.917236328125,0.176513671875,-0.075439453125,20.0,19.114503816793892,-2.5343511450381677,-862,8,1,17.86281128376352,-3068.5322921564025,0.001314,False,,False,,,,,30
96.67,4.408067991999999,0.917236328125,0.176513671875,-0.075439453125,20.0,19.114503816793892,-2.5343511450381677,-862,8,1,17.86281128376352,-3068.5322921564025,0.001314,False,,False,,,,,30
96.675,4.4100688030000015,0.92236328125,0.166015625,-0.075439453125,18.595419847328245,19.297709923664122,-2.5343511450381677,-862,4,1,17.86281128376352,-3060.526810082106,0.001314,False,,False,,,,,29
96.675,4.412070075999992,0.92236328125,0.166015625,-0.075439453125,18.595419847328245,19.297709923664122,-2.5343511450381677,-862,4,1,17.86281128376352,-3060.526810082106,0.001314,False,,False,,,,,29
96.68,4.414071515999993,0.920654296875,0.152099609375,-0.08837890625,15.022900763358779,19.84732824427481,-2.16793893129771,-862,1,-5,17.86281128376352,-3055.072407269607,-0.0065699999999999995,False,,False,,,,,29
96.68,4.416074252000001,0.920654296875,0.152099609375,-0.08837890625,15.022900763358779,19.84732824427481,-2.16793893129771,-862,1,-5,17.86281128376352,-3055.072407269607,-0.0065699999999999995,False,,False,,,,,29
96.68,4.41807391399999,0.920654296875,0.152099609375,-0.08837890625,15.022900763358779,19.84732824427481,-2.16793893129771,-862,1,-5,17.86281128376352,-3055.072407269607,-0.0065699999999999995,False,,False,,,,,29
96.685,4.420075668999999,0.92724609375,0.153564453125,-0.0859375,13.31297709923664,19.51145038167939,-1.5877862595419847,-863,-1,-6,17.865283207591645,-3051.8273661328158,-0.007884,False,,False,,,,,29
96.685,4.422076478999998,0.92724609375,0.153564453125,-0.0859375,13.31297709923664,19.51145038167939,-1.5877862595419847,-863,-1,-6,17.865283207591645,-3051.8273661328158,-0.007884,False,,False,,,,,29
96.69,4.4240782339999924,0.929931640625,0.1533203125,-0.0859375,12.183206106870228,19.63358778625954,-1.0381679389312977,-861,-1,-4,17.860339359935395,-3050.480762578115,-0.005256,False,,False,,,,,29
96.69,4.426080247999991,0.929931640625,0.1533203125,-0.0859375,12.183206106870228,19.63358778625954,-1.0381679389312977,-861,-1,-4,17.860339359935395,-3050.480762578115,-0.005256,False,,False,,,,,29
96.69,4.428080687999994,0.929931640625,0.1533203125,-0.0859375,12.183206106870228,19.63358778625954,-1.0381679389312977,-861,-1,-4,17.860339359935395,-3050.480762578115,-0.005256,False,,False,,,,,29
96.69500000000001,4.430081201999997,0.92626953125,0.15380859375,-0.08349609375,10.839694656488549,19.541984732824428,-0.732824427480916,-862,0,-2,17.86281128376352,-3050.746585018338,-0.002628,False,,False,,,,,29
96.69500000000001,4.4320827899999955,0.92626953125,0.15380859375,-0.08349609375,10.839694656488549,19.541984732824428,-0.732824427480916,-862,0,-2,17.86281128376352,-3050.746585018338,-0.002628,False,,False,,,,,29
96.7,4.434087691999991,0.93505859375,0.147216796875,-0.075927734375,7.32824427480916,19.786259541984734,-0.24427480916030533,-861,0,0,17.860339359935395,-3052.356659514448,0.0,False,,False,,,,,29
96.7,4.436087669000003,0.93505859375,0.147216796875,-0.075927734375,7.32824427480916,19.786259541984734,-0.24427480916030533,-861,0,0,17.860339359935395,-3052.356659514448,0.0,False,,False,,,,,29
96.7,4.438087960999994,0.93505859375,0.147216796875,-0.075927734375,7.32824427480916,19.786259541984734,-0.24427480916030533,-861,0,0,17.860339359935395,-3052.356659514448,0.0,False,,False,,,,,29
96.705,4.440088826999997,0.930419921875,0.1435546875,-0.0654296875,5.679389312977099,20.183206106870227,0.0,-862,-1,-4,17.86281128376352,-3055.0670019541144,-0.005256,False,,False,,,,,29
96.705,4.442089914999997,0.930419921875,0.1435546875,-0.0654296875,5.679389312977099,20.183206106870227,0.0,-862,-1,-4,17.86281128376352,-3055.0670019541144,-0.005256,False,,False,,,,,29
96.71000000000001,4.444091985,0.93359375,0.140625,-0.060546875,4.67175572519084,20.97709923664122,0.5801526717557252,-862,2,0,17.86281128376352,-3058.657414034972,0.0,False,,False,,,,,29
96.71000000000001,4.446093480000002,0.93359375,0.140625,-0.060546875,4.67175572519084,20.97709923664122,0.5801526717557252,-862,2,0,17.86281128376352,-3058.657414034972,0.0,False,,False,,,,,29
96.71000000000001,4.448093549999996,0.93359375,0.140625,-0.060546875,4.67175572519084,20.97709923664122,0.5801526717557252,-862,2,0,17.86281128376352,-3058.657414034972,0.0,False,,False,,,,,29
96.715,4.450095230000002,0.93115234375,0.136474609375,-0.052001953125,3.9083969465648853,22.47328244274809,1.2213740458015268,-861,-2,4,17.860339359935395,-3062.9343814591402,0.005256,False,,False,,,,,29
96.715,4.452096189000002,0.93115234375,0.136474609375,-0.052001953125,3.9083969465648853,22.47328244274809,1.2213740458015268,-861,-2,4,17.860339359935395,-3062.9343814591402,0.005256,False,,False,,,,,29
96.72,4.454097758000003,0.934326171875,0.128662109375,-0.048583984375,1.7404580152671756,24.366412213740457,1.9541984732824427,-860,4,-3,17.85786743610727,-3067.7295326763933,-0.003942,False,,False,,,,,29
96.72,4.456101086999993,0.934326171875,0.128662109375,-0.048583984375,1.7404580152671756,24.366412213740457,1.9541984732824427,-860,4,-3,17.85786743610727,-3067.7295326763933,-0.003942,False,,False,,,,,29
96.72,4.458101008,0.934326171875,0.128662109375,-0.048583984375,1.7404580152671756,24.366412213740457,1.9541984732824427,-860,4,-3,17.85786743610727,-3067.7295326763933,-0.003942,False,,False,,,,,29
96.72500000000001,4.460102429999992,0.94287109375,0.104736328125,-0.05908203125,0.4580152671755725,25.557251908396946,2.931297709923664,-859,1,3,17.855395512279145,-3072.8908223192634,0.003942,False,,False,,,,,29
96.72500000000001,4.46210366599999,0.94287109375,0.104736328125,-0.05908203125,0.4580152671755725,25.557251908396946,2.931297709923664,-859,1,3,17.855395512279145,-3072.8908223192634,0.003942,False,,False,,,,,29
96.73,4.464104716999998,0.946533203125,0.088623046875,-0.063720703125,-0.6717557251908397,25.98473282442748,3.66412213740458,-858,4,-2,17.85292358845102,-3078.2838661446763,-0.002628,False,,False,,,,,29
96.73,4.466107730999994,0.946533203125,0.088623046875,-0.063720703125,-0.6717557251908397,25.98473282442748,3.66412213740458,-858,4,-2,17.85292358845102,-3078.2838661446763,-0.002628,False,,False,,,,,29
96.73,4.468107762999992,0.946533203125,0.088623046875,-0.063720703125,-0.6717557251908397,25.98473282442748,3.66412213740458,-858,4,-2,17.85292358845102,-3078.2838661446763,-0.002628,False,,False,,,,,29
96.735,4.470108111000002,0.95654296875,0.08544921875,-0.0712890625,-1.282442748091603,26.50381679389313,4.0,-856,5,1,17.84797974079477,-3083.7945932749885,0.001314,False,,False,,,,,29
96.735,4.472110068999996,0.95654296875,0.08544921875,-0.0712890625,-1.282442748091603,26.50381679389313,4.0,-856,5,1,17.84797974079477,-3083.7945932749885,0.001314,False,,False,,,,,29
96.74000000000001,4.474111249999993,0.978271484375,0.075439453125,-0.0986328125,-5.099236641221374,25.61832061068702,5.709923664122138,-856,7,0,17.84797974079477,-3089.3240103144944,0.0,False,,False,,,,,29
96.74000000000001,4.476113874999996,0.978271484375,0.075439453125,-0.0986328125,-5.099236641221374,25.61832061068702,5.709923664122138,-856,7,0,17.84797974079477,-3089.3240103144944,0.0,False,,False,,,,,29
96.74000000000001,4.4781142039999935,0.978271484375,0.075439453125,-0.0986328125,-5.099236641221374,25.61832061068702,5.709923664122138,-856,7,0,17.84797974079477,-3089.3240103144944,0.0,False,,False,,,,,29
96.745,4.480114884999992,0.934814453125,0.080078125,-0.109130859375,-7.450381679389313,23.78625954198473,5.038167938931298,-856,9,-4,17.84797974079477,-3094.7835995405862,-0.005256,False,,False,,,,,29
96.745,4.482116434999995,0.934814453125,0.080078125,-0.109130859375,-7.450381679389313,23.78625954198473,5.038167938931298,-856,9,-4,17.84797974079477,-3094.7835995405862,-0.005256,False,,False,,,,,29
96.75,4.484117357000002,0.936767578125,0.08056640625,-0.113037109375,-11.511450381679388,22.16793893129771,4.67175572519084,-852,9,-5,17.83809204548227,-3100.1092196373907,-0.0065699999999999995,False,,False,,,,,29
96.75,4.486120092999997,0.936767578125,0.08056640625,-0.113037109375,-11.511450381679388,22.16793893129771,4.67175572519084,-852,9,-5,17.83809204548227,-3100.1092196373907,-0.0065699999999999995,False,,False,,,,,29
96.75,4.488119828999999,0.936767578125,0.08056640625,-0.113037109375,-11.511450381679388,22.16793893129771,4.67175572519084,-852,9,-5,17.83809204548227,-3100.1092196373907,-0.0065699999999999995,False,,False,,,,,29
96.755,4.490121231999993,0.942138671875,0.0966796875,-0.1328125,-12.67175572519084,20.061068702290076,4.854961832061068,-848,14,3,17.82820435016977,-3105.2598564712484,0.003942,False,,False,,,,,30
96.755,4.49212283899999,0.942138671875,0.0966796875,-0.1328125,-12.67175572519084,20.061068702290076,4.854961832061068,-848,14,3,17.82820435016977,-3105.2598564712484,0.003942,False,,False,,,,,30
96.76,4.494124370999998,0.947509765625,0.126953125,-0.162353515625,-12.519083969465647,16.30534351145038,3.9083969465648853,-844,13,-1,17.81831665485727,-3110.19654667988,-0.001314,False,,False,,,,,30
96.76,4.496126551999993,0.947509765625,0.126953125,-0.162353515625,-12.519083969465647,16.30534351145038,3.9083969465648853,-844,13,-1,17.81831665485727,-3110.19654667988,-0.001314,False,,False,,,,,30
96.76,4.498127565999994,0.947509765625,0.126953125,-0.162353515625,-12.519083969465647,16.30534351145038,3.9083969465648853,-844,13,-1,17.81831665485727,-3110.19654667988,-0.001314,False,,False,,,,,30
96.765,4.500129153999993,0.975341796875,0.134765625,-0.17138671875,-12.854961832061068,13.954198473282442,3.236641221374046,-841,14,3,17.810900883372895,-3114.88081771663,0.003942,False,,False,,,,,29
96.765,4.502130444999992,0.975341796875,0.134765625,-0.17138671875,-12.854961832061068,13.954198473282442,3.236641221374046,-841,14,3,17.810900883372895,-3114.88081771663,0.003942,False,,False,,,,,29
96.77,4.5041324780000025,0.9921875,0.144287109375,-0.18896484375,-13.465648854961831,10.473282442748092,2.2900763358778624,-837,22,0,17.801013188060395,-3119.2841177988225,0.0,False,,False,,,,,29
96.77,4.5061353990000015,0.9921875,0.144287109375,-0.18896484375,-13.465648854961831,10.473282442748092,2.2900763358778624,-837,22,0,17.801013188060395,-3119.2841177988225,0.0,False,,False,,,,,29
96.77,4.508135154000001,0.9921875,0.144287109375,-0.18896484375,-13.465648854961831,10.473282442748092,2.2900763358778624,-837,22,0,17.801013188060395,-3119.2841177988225,0.0,False,,False,,,,,29
96.775,4.510135556999998,1.019287109375,0.158935546875,-0.207763671875,-14.381679389312977,6.625954198473282,1.9541984732824427,-835,15,2,17.796069340404145,-3123.386614247107,0.002628,False,,False,,,,,29
96.775,4.512137588999991,1.019287109375,0.158935546875,-0.207763671875,-14.381679389312977,6.625954198473282,1.9541984732824427,-835,15,2,17.796069340404145,-3123.386614247107,0.002628,False,,False,,,,,29
96.78,4.514139639999996,1.107421875,0.211669921875,-0.210693359375,-14.717557251908396,-1.7709923664122136,0.732824427480916,-829,23,4,17.781237797435395,-3127.1796421743807,0.005256,False,,False,,,,,29
96.78,4.5161419319999965,1.107421875,0.211669921875,-0.210693359375,-14.717557251908396,-1.7709923664122136,0.732824427480916,-829,23,4,17.781237797435395,-3127.1796421743807,0.005256,False,,False,,,,,29
96.78,4.518143797999997,1.107421875,0.211669921875,-0.210693359375,-14.717557251908396,-1.7709923664122136,0.732824427480916,-829,23,4,17.781237797435395,-3127.1796421743807,0.005256,False,,False,,,,,29
96.785,4.520146552,1.13720703125,0.22119140625,-0.212890625,-15.053435114503817,-5.49618320610687,1.2213740458015268,-822,39,5,17.76393433063852,-3130.671173706904,0.0065699999999999995,False,,False,,,,,29
96.785,4.522145936999991,1.13720703125,0.22119140625,-0.212890625,-15.053435114503817,-5.49618320610687,1.2213740458015268,-822,39,5,17.76393433063852,-3130.671173706904,0.0065699999999999995,False,,False,,,,,29
96.79,4.524145783999998,1.19580078125,0.25244140625,-0.168701171875,-14.229007633587786,-8.366412213740457,1.0076335877862594,-809,62,-1,17.731799320872895,-3133.881203178985,-0.001314,False,,False,,,,,29
96.79,4.526148242999994,1.19580078125,0.25244140625,-0.168701171875,-14.229007633587786,-8.366412213740457,1.0076335877862594,-809,62,-1,17.731799320872895,-3133.881203178985,-0.001314,False,,False,,,,,29
96.79,4.528148274999992,1.19580078125,0.25244140625,-0.168701171875,-14.229007633587786,-8.366412213740457,1.0076335877862594,-809,62,-1,17.731799320872895,-3133.881203178985,-0.001314,False,,False,,,,,29
96.795,4.530149696999999,1.22119140625,0.24560546875,-0.151123046875,-12.916030534351144,-8.67175572519084,2.8091603053435112,-778,146,-7,17.65516968220102,-3136.8645671028085,-0.009198,False,,False,,,,,29
96.795,4.532153284000003,1.22119140625,0.24560546875,-0.151123046875,-12.916030534351144,-8.67175572519084,2.8091603053435112,-778,146,-7,17.65516968220102,-3136.8645671028085,-0.009198,False,,False,,,,,29
96.8,4.534152225,1.312744140625,0.311279296875,-0.08984375,-10.351145038167939,-8.854961832061068,5.312977099236641,-734,196,0,17.54640503376352,-3139.7134293419726,0.0,False,,False,,,,,29
96.8,4.5361579969999895,1.312744140625,0.311279296875,-0.08984375,-10.351145038167939,-8.854961832061068,5.312977099236641,-734,196,0,17.54640503376352,-3139.7134293419726,0.0,False,,False,,,,,29
96.8,4.538155660000001,1.312744140625,0.311279296875,-0.08984375,-10.351145038167939,-8.854961832061068,5.312977099236641,-734,196,0,17.54640503376352,-3139.7134293419726,0.0,False,,False,,,,,29
96.805,4.540156803000002,1.387451171875,0.34765625,-0.072265625,-8.48854961832061,-7.633587786259541,7.32824427480916,-673,272,5,17.395617680247895,-3142.517639306018,0.0065699999999999995,False,,False,,,,,29
96.805,4.542158353999994,1.387451171875,0.34765625,-0.072265625,-8.48854961832061,-7.633587786259541,7.32824427480916,-673,272,5,17.395617680247895,-3142.517639306018,0.0065699999999999995,False,,False,,,,,29
96.81,4.544159312999994,1.403564453125,0.376708984375,-0.076904296875,-8.213740458015266,-7.969465648854961,8.702290076335878,-602,330,-4,17.22011108845102,-3145.345902120566,-0.005256,False,,False,,,,,29
96.81,4.546162085999995,1.403564453125,0.376708984375,-0.076904296875,-8.213740458015266,-7.969465648854961,8.702290076335878,-602,330,-4,17.22011108845102,-3145.345902120566,-0.005256,False,,False,,,,,29
96.81,4.548160914999997,1.403564453125,0.376708984375,-0.076904296875,-8.213740458015266,-7.969465648854961,8.702290076335878,-602,330,-4,17.22011108845102,-3145.345902120566,-0.005256,False,,False,,,,,29
96.815,4.550162521999994,1.4560546875,0.423828125,-0.06640625,-7.3893129770992365,-6.99236641221374,10.351145038167939,-515,380,-1,17.005053715404145,-3148.2482259924755,-0.001314,False,,False,,,,,30
96.815,4.552164794999996,1.4560546875,0.423828125,-0.06640625,-7.3893129770992365,-6.99236641221374,10.351145038167939,-515,380,-1,17.005053715404145,-3148.2482259924755,-0.001314,False,,False,,,,,30
96.82000000000001,4.554165956999995,1.4736328125,0.466552734375,-0.051513671875,-7.32824427480916,-2.748091603053435,12.946564885496183,-416,434,0,16.76033325641977,-3151.2671944768267,0.0,False,,False,,,,,30
96.82000000000001,4.556167266999992,1.4736328125,0.466552734375,-0.051513671875,-7.32824427480916,-2.748091603053435,12.946564885496183,-416,434,0,16.76033325641977,-3151.2671944768267,0.0,False,,False,,,,,30
96.82000000000001,4.5581675589999975,1.4736328125,0.466552734375,-0.051513671875,-7.32824427480916,-2.748091603053435,12.946564885496183,-416,434,0,16.76033325641977,-3151.2671944768267,0.0,False,,False,,,,,30
96.825,4.560169035999991,1.4560546875,0.51025390625,-0.02734375,-8.885496183206106,-0.9770992366412213,13.221374045801527,-312,459,1,16.50325317829477,-3154.4206534084956,0.001314,False,,False,,,,,29
96.825,4.562171215999996,1.4560546875,0.51025390625,-0.02734375,-8.885496183206106,-0.9770992366412213,13.221374045801527,-312,459,1,16.50325317829477,-3154.4206534084956,0.001314,False,,False,,,,,29
96.83,4.56417248999999,1.421630859375,0.504150390625,-0.017578125,-9.954198473282442,0.48854961832061067,15.694656488549617,-231,451,3,16.303027348216645,-3157.63923147511,0.003942,False,,False,,,,,29
96.83,4.566176502999994,1.421630859375,0.504150390625,-0.017578125,-9.954198473282442,0.48854961832061067,15.694656488549617,-231,451,3,16.303027348216645,-3157.63923147511,0.003942,False,,False,,,,,29
96.83,4.568176054999995,1.421630859375,0.504150390625,-0.017578125,-9.954198473282442,0.48854961832061067,15.694656488549617,-231,451,3,16.303027348216645,-3157.63923147511,0.003942,False,,False,,,,,29
96.83500000000001,4.570177328,1.39599609375,0.520751953125,-0.00341796875,-8.458015267175572,0.5190839694656488,17.221374045801525,-129,452,2,16.050891117747895,-3160.8298893445553,0.002628,False,,False,,,,,29
96.83500000000001,4.572177971000002,1.39599609375,0.520751953125,-0.00341796875,-8.458015267175572,0.5190839694656488,17.221374045801525,-129,452,2,16.050891117747895,-3160.8298893445553,0.002628,False,,False,,,,,29
96.84,4.574180021999993,1.2431640625,0.501953125,-0.02783203125,-7.7251908396946565,-0.3053435114503817,19.603053435114504,-28,443,-11,15.801226811107268,-3163.983179825698,-0.014454,False,,False,,,,,29
96.84,4.576182906,1.2431640625,0.501953125,-0.02783203125,-7.7251908396946565,-0.3053435114503817,19.603053435114504,-28,443,-11,15.801226811107268,-3163.983179825698,-0.014454,False,,False,,,,,29
96.84,4.578182810000001,1.2431640625,0.501953125,-0.02783203125,-7.7251908396946565,-0.3053435114503817,19.603053435114504,-28,443,-11,15.801226811107268,-3163.983179825698,-0.014454,False,,False,,,,,29
96.845,4.580183601000002,1.162109375,0.4892578125,-0.043212890625,-8.061068702290076,-1.3740458015267174,20.183206106870227,71,432,-15,15.556506352122893,-3167.089944730481,-0.019710000000000002,False,,False,,,,,29
96.845,4.5821851890000005,1.162109375,0.4892578125,-0.043212890625,-8.061068702290076,-1.3740458015267174,20.183206106870227,71,432,-15,15.556506352122893,-3167.089944730481,-0.019710000000000002,False,,False,,,,,29
96.85000000000001,4.584186443999997,1.080322265625,0.4892578125,-0.063720703125,-10.015267175572518,-4.305343511450381,19.48091603053435,157,371,-5,15.343920902904143,-3170.0805233493106,-0.0065699999999999995,False,,False,,,,,29
96.85000000000001,4.58618925399999,1.080322265625,0.4892578125,-0.063720703125,-10.015267175572518,-4.305343511450381,19.48091603053435,157,371,-5,15.343920902904143,-3170.0805233493106,-0.0065699999999999995,False,,False,,,,,29
96.85000000000001,4.588189286999992,1.080322265625,0.4892578125,-0.063720703125,-10.015267175572518,-4.305343511450381,19.48091603053435,157,371,-5,15.343920902904143,-3170.0805233493106,-0.0065699999999999995,False,,False,,,,,29
96.855,4.590191337999997,1.001708984375,0.47412109375,-0.075439453125,-10.595419847328245,-5.526717557251908,19.63358778625954,236,340,-2,15.148638920482268,-3172.8678416023263,-0.002628,False,,False,,,,,29
96.855,4.592193202999994,1.001708984375,0.47412109375,-0.075439453125,-10.595419847328245,-5.526717557251908,19.63358778625954,236,340,-2,15.148638920482268,-3172.8678416023263,-0.002628,False,,False,,,,,29
96.86,4.594194439999995,0.850341796875,0.464599609375,-0.07568359375,-11.786259541984732,-8.244274809160306,17.099236641221374,301,288,-7,14.987963871654143,-3175.371204219871,-0.009198,False,,False,,,,,29
96.86,4.596196601999992,0.850341796875,0.464599609375,-0.07568359375,-11.786259541984732,-8.244274809160306,17.099236641221374,301,288,-7,14.987963871654143,-3175.371204219871,-0.009198,False,,False,,,,,29
96.86,4.598197818999992,0.850341796875,0.464599609375,-0.07568359375,-11.786259541984732,-8.244274809160306,17.099236641221374,301,288,-7,14.987963871654143,-3175.371204219871,-0.009198,False,,False,,,,,29
96.86500000000001,4.600199406999991,0.79443359375,0.431396484375,-0.072021484375,-11.297709923664122,-8.610687022900763,17.0381679389313,357,248,-3,14.849536137279143,-3177.5217966778146,-0.003942,False,,False,,,,,29
96.86500000000001,4.602199884000001,0.79443359375,0.431396484375,-0.072021484375,-11.297709923664122,-8.610687022900763,17.0381679389313,357,248,-3,14.849536137279143,-3177.5217966778146,-0.003942,False,,False,,,,,29
96.87,4.604201269000001,0.759765625,0.43115234375,-0.063232421875,-11.083969465648854,-10.473282442748092,16.12213740458015,405,209,0,14.730883793529143,-3179.2742812205156,0.0,False,,False,,,,,29
96.87,4.606203559999997,0.759765625,0.43115234375,-0.063232421875,-11.083969465648854,-10.473282442748092,16.12213740458015,405,209,0,14.730883793529143,-3179.2742812205156,0.0,False,,False,,,,,29
96.87,4.608204036999993,0.759765625,0.43115234375,-0.063232421875,-11.083969465648854,-10.473282442748092,16.12213740458015,405,209,0,14.730883793529143,-3179.2742812205156,0.0,False,,False,,,,,29
96.875,4.610205163000003,0.736083984375,0.437255859375,-0.059326171875,-10.870229007633588,-10.748091603053435,14.167938931297709,445,166,-5,14.632006840404143,-3180.609002720386,-0.0065699999999999995,False,,False,,,,,29
96.875,4.612206899,0.736083984375,0.437255859375,-0.059326171875,-10.870229007633588,-10.748091603053435,14.167938931297709,445,166,-5,14.632006840404143,-3180.609002720386,-0.0065699999999999995,False,,False,,,,,29
96.88,4.614208152999993,0.72802734375,0.385498046875,-0.060546875,-10.106870229007633,-13.068702290076335,13.251908396946565,482,164,-3,14.540545658763518,-3181.526301309016,-0.003942,False,,False,,,,,29
96.88,4.616210314999989,0.72802734375,0.385498046875,-0.060546875,-10.106870229007633,-13.068702290076335,13.251908396946565,482,164,-3,14.540545658763518,-3181.526301309016,-0.003942,False,,False,,,,,29
96.88,4.618210773999991,0.72802734375,0.385498046875,-0.060546875,-10.106870229007633,-13.068702290076335,13.251908396946565,482,164,-3,14.540545658763518,-3181.526301309016,-0.003942,False,,False,,,,,29
96.885,4.620212029000001,0.67529296875,0.347900390625,-0.06787109375,-12.183206106870228,-14.167938931297709,12.458015267175572,514,137,0,14.461444096263518,-3182.0468328629695,0.0,False,,False,,,,,29
96.885,4.622213617,0.67529296875,0.347900390625,-0.06787109375,-12.183206106870228,-14.167938931297709,12.458015267175572,514,137,0,14.461444096263518,-3182.0468328629695,0.0,False,,False,,,,,29
96.89,4.6242137790000015,0.707763671875,0.349609375,-0.0615234375,-11.297709923664122,-14.99236641221374,11.450381679389313,542,127,0,14.392230229076018,-3182.1972189667713,0.0,False,,False,,,,,29
96.89,4.6262156819999944,0.707763671875,0.349609375,-0.0615234375,-11.297709923664122,-14.99236641221374,11.450381679389313,542,127,0,14.392230229076018,-3182.1972189667713,0.0,False,,False,,,,,29
96.89,4.628216843999994,0.707763671875,0.349609375,-0.0615234375,-11.297709923664122,-14.99236641221374,11.450381679389313,542,127,0,14.392230229076018,-3182.1972189667713,0.0,False,,False,,,,,29
96.895,4.63021822799999,0.677490234375,0.359130859375,-0.073974609375,-13.526717557251908,-17.832061068702288,8.366412213740457,559,71,4,14.350207523997893,-3181.9925753891466,0.005256,False,,False,,,,,29
96.9,4.634602868999991,0.721435546875,0.35498046875,-0.086181640625,-15.267175572519083,-20.885496183206104,5.83206106870229,566,25,0,14.332904057201018,-3181.429213942021,0.0,False,,False,,,,,29
96.9,4.6366053089999895,0.721435546875,0.35498046875,-0.086181640625,-15.267175572519083,-20.885496183206104,5.83206106870229,566,25,0,14.332904057201018,-3181.429213942021,0.0,False,,False,,,,,29
96.905,4.638607119,0.739013671875,0.3408203125,-0.096435546875,-13.770992366412214,-22.564885496183205,5.007633587786259,571,23,6,14.320544438060393,-3180.5146151019876,0.007884,False,,False,,,,,29
96.905,4.640607281000001,0.739013671875,0.3408203125,-0.096435546875,-13.770992366412214,-22.564885496183205,5.007633587786259,571,23,6,14.320544438060393,-3180.5146151019876,0.007884,False,,False,,,,,29
96.905,4.642609925000002,0.739013671875,0.3408203125,-0.096435546875,-13.770992366412214,-22.564885496183205,5.007633587786259,571,23,6,14.320544438060393,-3180.5146151019876,0.007884,False,,False,,,,,29
96.91,4.644611142000002,0.774169921875,0.338623046875,-0.093505859375,-12.977099236641221,-23.725190839694655,3.969465648854962,583,56,-2,14.290881352122893,-3179.3066827750904,-0.002628,False,,False,,,,,29
96.91,4.646612544999996,0.774169921875,0.338623046875,-0.093505859375,-12.977099236641221,-23.725190839694655,3.969465648854962,583,56,-2,14.290881352122893,-3179.3066827750904,-0.002628,False,,False,,,,,29
96.915,4.648615262999996,0.798583984375,0.326416015625,-0.10205078125,-11.725190839694656,-23.69465648854962,3.969465648854962,605,99,-1,14.236499027904143,-3177.9100671116826,-0.001314,False,,False,,,,,29
96.915,4.650614813999994,0.798583984375,0.326416015625,-0.10205078125,-11.725190839694656,-23.69465648854962,3.969465648854962,605,99,-1,14.236499027904143,-3177.9100671116826,-0.001314,False,,False,,,,,29
96.915,4.6526163279999935,0.798583984375,0.326416015625,-0.10205078125,-11.725190839694656,-23.69465648854962,3.969465648854962,605,99,-1,14.236499027904143,-3177.9100671116826,-0.001314,False,,False,,,,,29
96.92,4.654618564000003,0.843994140625,0.331298828125,-0.083740234375,-12.213740458015266,-23.32824427480916,2.3206106870229006,629,107,-4,14.177172856029143,-3176.4276462303847,-0.005256,False,,False,,,,,29
96.92,4.656622558999999,0.843994140625,0.331298828125,-0.083740234375,-12.213740458015266,-23.32824427480916,2.3206106870229006,629,107,-4,14.177172856029143,-3176.4276462303847,-0.005256,False,,False,,,,,29
96.925,4.6586208330000005,0.90771484375,0.319580078125,-0.05908203125,-9.709923664122137,-21.49618320610687,3.633587786259542,666,158,11,14.085711674388518,-3174.9432098328393,0.014454,False,,False,,,,,30
96.925,4.660622512999993,0.90771484375,0.319580078125,-0.05908203125,-9.709923664122137,-21.49618320610687,3.633587786259542,666,158,11,14.085711674388518,-3174.9432098328393,0.014454,False,,False,,,,,30
96.925,4.662624416,0.90771484375,0.319580078125,-0.05908203125,-9.709923664122137,-21.49618320610687,3.633587786259542,666,158,11,14.085711674388518,-3174.9432098328393,0.014454,False,,False,,,,,30
96.93,4.664625375,0.9267578125,0.33740234375,-0.037841796875,-10.564885496183205,-21.19083969465649,1.8625954198473282,707,180,8,13.984362797435393,-3173.53588683886,0.010512,False,,False,,,,,30
96.93,4.66662840699999,0.9267578125,0.33740234375,-0.037841796875,-10.564885496183205,-21.19083969465649,1.8625954198473282,707,180,8,13.984362797435393,-3173.53588683886,0.010512,False,,False,,,,,30
96.935,4.668629253999995,0.943115234375,0.287109375,-0.03564453125,-12.763358778625953,-18.045801526717558,3.5114503816793894,756,217,-2,13.863238529857268,-3172.265433894912,-0.002628,False,,False,,,,,29
96.935,4.670629841999997,0.943115234375,0.287109375,-0.03564453125,-12.763358778625953,-18.045801526717558,3.5114503816793894,756,217,-2,13.863238529857268,-3172.265433894912,-0.002628,False,,False,,,,,29
96.935,4.67263174499999,0.943115234375,0.287109375,-0.03564453125,-12.763358778625953,-18.045801526717558,3.5114503816793894,756,217,-2,13.863238529857268,-3172.265433894912,-0.002628,False,,False,,,,,29
96.94,4.674632666999997,0.9921875,0.3125,-0.017578125,-14.473282442748092,-14.595419847328243,4.793893129770992,811,250,-4,13.727282719310393,-3171.1745238576004,-0.005256,False,,False,,,,,29
96.94,4.676637958000001,0.9921875,0.3125,-0.017578125,-14.473282442748092,-14.595419847328243,4.793893129770992,811,250,-4,13.727282719310393,-3171.1745238576004,-0.005256,False,,False,,,,,29
96.94500000000001,4.678635286999992,0.992431640625,0.3125,-0.0087890625,-14.13740458015267,-13.770992366412214,6.076335877862595,874,286,-7,13.571551518138518,-3170.299861678878,-0.009198,False,,False,,,,,30
96.94500000000001,4.680636078999996,0.992431640625,0.3125,-0.0087890625,-14.13740458015267,-13.770992366412214,6.076335877862595,874,286,-7,13.571551518138518,-3170.299861678878,-0.009198,False,,False,,,,,30
96.94500000000001,4.682638221999994,0.992431640625,0.3125,-0.0087890625,-14.13740458015267,-13.770992366412214,6.076335877862595,874,286,-7,13.571551518138518,-3170.299861678878,-0.009198,False,,False,,,,,30
96.95,4.684639144000002,1.01318359375,0.337890625,0.00439453125,-14.320610687022901,-12.0,7.267175572519084,948,324,-9,13.388629154857268,-3169.6779958683446,-0.011826,False,,False,,,,,30
96.95,4.686642731999996,1.01318359375,0.337890625,0.00439453125,-14.320610687022901,-12.0,7.267175572519084,948,324,-9,13.388629154857268,-3169.6779958683446,-0.011826,False,,False,,,,,30
96.955,4.6886415049999925,1.010009765625,0.350830078125,-0.001220703125,-13.435114503816793,-9.923664122137405,7.694656488549618,1030,357,-6,13.185931400951018,-3169.344814496781,-0.007884,False,,False,,,,,30
96.955,4.690642611999991,1.010009765625,0.350830078125,-0.001220703125,-13.435114503816793,-9.923664122137405,7.694656488549618,1030,357,-6,13.185931400951018,-3169.344814496781,-0.007884,False,,False,,,,,30
96.955,4.6926471989999925,1.010009765625,0.350830078125,-0.001220703125,-13.435114503816793,-9.923664122137405,7.694656488549618,1030,357,-6,13.185931400951018,-3169.344814496781,-0.007884,False,,False,,,,,30
96.96000000000001,4.694645805999997,0.978759765625,0.370849609375,-0.0146484375,-16.671755725190838,-8.061068702290076,8.51908396946565,1114,369,-8,12.978289799388518,-3169.310065768625,-0.010512,False,,False,,,,,30
96.96000000000001,4.696650320000003,0.978759765625,0.370849609375,-0.0146484375,-16.671755725190838,-8.061068702290076,8.51908396946565,1114,369,-8,12.978289799388518,-3169.310065768625,-0.010512,False,,False,,,,,30
96.965,4.698648871000003,0.980224609375,0.406982421875,-0.006591796875,-16.702290076335878,-9.282442748091603,8.0,1197,369,-1,12.773120121654143,-3169.5453583147746,-0.001314,False,,False,,,,,29
96.965,4.700650033000002,0.980224609375,0.406982421875,-0.006591796875,-16.702290076335878,-9.282442748091603,8.0,1197,369,-1,12.773120121654143,-3169.5453583147746,-0.001314,False,,False,,,,,29
96.965,4.702651695,0.980224609375,0.406982421875,-0.006591796875,-16.702290076335878,-9.282442748091603,8.0,1197,369,-1,12.773120121654143,-3169.5453583147746,-0.001314,False,,False,,,,,29
96.97,4.7046524499999975,0.949951171875,0.400634765625,-0.01416015625,-16.091603053435115,-8.67175572519084,8.305343511450381,1284,383,5,12.558062748607268,-3170.010477858895,0.0065699999999999995,False,,False,,,,,29
96.97,4.706655593999997,0.949951171875,0.400634765625,-0.01416015625,-16.091603053435115,-8.67175572519084,8.305343511450381,1284,383,5,12.558062748607268,-3170.010477858895,0.0065699999999999995,False,,False,,,,,29
96.97500000000001,4.708655608000001,0.94140625,0.414794921875,-0.033203125,-14.99236641221374,-7.633587786259541,9.709923664122137,1378,417,0,12.325701908763518,-3170.686333347596,0.0,False,,False,,,,,29
96.97500000000001,4.710657028999989,0.94140625,0.414794921875,-0.033203125,-14.99236641221374,-7.633587786259541,9.709923664122137,1378,417,0,12.325701908763518,-3170.686333347596,0.0,False,,False,,,,,29
96.97500000000001,4.712658098999995,0.94140625,0.414794921875,-0.033203125,-14.99236641221374,-7.633587786259541,9.709923664122137,1378,417,0,12.325701908763518,-3170.686333347596,0.0,False,,False,,,,,29
96.98,4.714659798,0.91162109375,0.442138671875,0.000732421875,-12.244274809160306,-8.061068702290076,10.412213740458014,1478,441,-3,12.078509525951018,-3171.5717942690135,-0.003942,False,,False,,,,,29
96.98,4.716661422999991,0.91162109375,0.442138671875,0.000732421875,-12.244274809160306,-8.061068702290076,10.412213740458014,1478,441,-3,12.078509525951018,-3171.5717942690135,-0.003942,False,,False,,,,,29
96.985,4.718663047999996,0.900146484375,0.4228515625,0.0068359375,-13.129770992366412,-7.603053435114504,11.603053435114504,1579,440,-1,11.828845219310393,-3172.655715666271,-0.001314,False,,False,,,,,29
96.985,4.720666412999989,0.900146484375,0.4228515625,0.0068359375,-13.129770992366412,-7.603053435114504,11.603053435114504,1579,440,-1,11.828845219310393,-3172.655715666271,-0.001314,False,,False,,,,,29
96.985,4.7226684089999935,0.900146484375,0.4228515625,0.0068359375,-13.129770992366412,-7.603053435114504,11.603053435114504,1579,440,-1,11.828845219310393,-3172.655715666271,-0.001314,False,,False,,,,,29
96.99000000000001,4.724670681999996,0.89501953125,0.44873046875,0.023681640625,-13.099236641221374,-8.732824427480915,11.358778625954198,1679,442,-1,11.581652836497893,-3173.9026155892175,-0.001314,False,,False,,,,,29
96.99000000000001,4.7266689369999995,0.89501953125,0.44873046875,0.023681640625,-13.099236641221374,-8.732824427480915,11.358778625954198,1679,442,-1,11.581652836497893,-3173.9026155892175,-0.001314,False,,False,,,,,29
96.995,4.728670155000003,0.86669921875,0.444580078125,0.031982421875,-11.938931297709923,-7.236641221374046,12.793893129770991,1785,470,-3,11.319628910716643,-3175.276847166613,-0.003942,False,,False,,,,,29
96.995,4.7306728719999995,0.86669921875,0.444580078125,0.031982421875,-11.938931297709923,-7.236641221374046,12.793893129770991,1785,470,-3,11.319628910716643,-3175.276847166613,-0.003942,False,,False,,,,,29
96.995,4.732672034999993,0.86669921875,0.444580078125,0.031982421875,-11.938931297709923,-7.236641221374046,12.793893129770991,1785,470,-3,11.319628910716643,-3175.276847166613,-0.003942,False,,False,,,,,29
97.0,4.734677214999991,0.843017578125,0.455078125,0.06982421875,-8.183206106870228,-5.6183206106870225,13.709923664122137,1897,497,0,11.042773441966643,-3176.768208923205,0.0,False,,False,,,,,29
97.0,4.736676228999997,0.843017578125,0.455078125,0.06982421875,-8.183206106870228,-5.6183206106870225,13.709923664122137,1897,497,0,11.042773441966643,-3176.768208923205,0.0,False,,False,,,,,29
97.005,4.738679816999991,0.83154296875,0.459228515625,0.08740234375,-9.465648854961831,-5.465648854961832,13.587786259541984,2007,482,1,10.770861820872893,-3178.364673034107,0.001314,False,,False,,,,,29
97.005,4.740678219999992,0.83154296875,0.459228515625,0.08740234375,-9.465648854961831,-5.465648854961832,13.587786259541984,2007,482,1,10.770861820872893,-3178.364673034107,0.001314,False,,False,,,,,29
97.005,4.742684714999996,0.83154296875,0.459228515625,0.08740234375,-9.465648854961831,-5.465648854961832,13.587786259541984,2007,482,1,10.770861820872893,-3178.364673034107,0.001314,False,,False,,,,,29
97.01,4.744680692000003,0.829345703125,0.46875,0.099365234375,-9.801526717557252,-4.488549618320611,13.465648854961831,2117,479,3,10.498950199779143,-3180.029580377604,0.003942,False,,False,,,,,29
97.01,4.746683724999997,0.829345703125,0.46875,0.099365234375,-9.801526717557252,-4.488549618320611,13.465648854961831,2117,479,3,10.498950199779143,-3180.029580377604,0.003942,False,,False,,,,,29
97.015,4.748684998000002,0.802490234375,0.463623046875,0.10498046875,-8.458015267175572,-3.32824427480916,13.679389312977099,2230,493,5,10.219622807201018,-3181.729458587116,0.0065699999999999995,False,,False,,,,,29
97.015,4.750684475,0.802490234375,0.463623046875,0.10498046875,-8.458015267175572,-3.32824427480916,13.679389312977099,2230,493,5,10.219622807201018,-3181.729458587116,0.0065699999999999995,False,,False,,,,,29
97.015,4.752686822000001,0.802490234375,0.463623046875,0.10498046875,-8.458015267175572,-3.32824427480916,13.679389312977099,2230,493,5,10.219622807201018,-3181.729458587116,0.0065699999999999995,False,,False,,,,,29
97.02,4.754688372999993,0.805908203125,0.478759765625,0.11181640625,-5.374045801526718,-0.2748091603053435,12.885496183206106,2344,499,-3,9.937823490794768,-3183.4465216232293,-0.003942,False,,False,,,,,29
97.02,4.756692516000001,0.805908203125,0.478759765625,0.11181640625,-5.374045801526718,-0.2748091603053435,12.885496183206106,2344,499,-3,9.937823490794768,-3183.4465216232293,-0.003942,False,,False,,,,,29
97.025,4.758692863999997,0.786865234375,0.48193359375,0.108642578125,-7.083969465648854,0.42748091603053434,11.633587786259541,2454,480,-5,9.665911869701018,-3185.1548873631896,-0.0065699999999999995,False,,False,,,,,29
97.025,4.760692840999994,0.786865234375,0.48193359375,0.108642578125,-7.083969465648854,0.42748091603053434,11.633587786259541,2454,480,-5,9.665911869701018,-3185.1548873631896,-0.0065699999999999995,False,,False,,,,,29
97.025,4.762695132999994,0.786865234375,0.48193359375,0.108642578125,-7.083969465648854,0.42748091603053434,11.633587786259541,2454,480,-5,9.665911869701018,-3185.1548873631896,-0.0065699999999999995,False,,False,,,,,29
97.03,4.7646960909999905,0.80810546875,0.491455078125,0.108154296875,-7.267175572519084,1.9541984732824427,11.114503816793892,2561,467,-1,9.401416020091643,-3186.8133182182073,-0.001314,False,,False,,,,,29
97.03,4.766697789999995,0.80810546875,0.491455078125,0.108154296875,-7.267175572519084,1.9541984732824427,11.114503816793892,2561,467,-1,9.401416020091643,-3186.8133182182073,-0.001314,False,,False,,,,,29
97.035,4.768698786000002,0.796630859375,0.489501953125,0.10009765625,-6.229007633587786,2.5343511450381677,10.351145038167939,2665,450,0,9.144335941966643,-3188.382642716171,0.0,False,,False,,,,,30
97.035,4.7707003550000024,0.796630859375,0.489501953125,0.10009765625,-6.229007633587786,2.5343511450381677,10.351145038167939,2665,450,0,9.144335941966643,-3188.382642716171,0.0,False,,False,,,,,30
97.035,4.77270249899999,0.796630859375,0.489501953125,0.10009765625,-6.229007633587786,2.5343511450381677,10.351145038167939,2665,450,0,9.144335941966643,-3188.382642716171,0.0,False,,False,,,,,30
97.04,4.774703957,0.7939453125,0.5068359375,0.0830078125,-3.5725190839694654,5.374045801526718,8.67175572519084,2767,446,2,8.892199711497893,-3189.8349390870617,0.002628,False,,False,,,,,30
97.04,4.776705471,0.7939453125,0.5068359375,0.0830078125,-3.5725190839694654,5.374045801526718,8.67175572519084,2767,446,2,8.892199711497893,-3189.8349390870617,0.002628,False,,False,,,,,30
97.045,4.7787069849999995,0.79541015625,0.51220703125,0.073974609375,-4.702290076335878,5.343511450381679,7.022900763358779,2863,413,9,8.654895023997893,-3191.1449460833996,0.011826,False,,False,,,,,29
97.045,4.780708887999992,0.79541015625,0.51220703125,0.073974609375,-4.702290076335878,5.343511450381679,7.022900763358779,2863,413,9,8.654895023997893,-3191.1449460833996,0.011826,False,,False,,,,,29
97.045,4.782709605999997,0.79541015625,0.51220703125,0.073974609375,-4.702290076335878,5.343511450381679,7.022900763358779,2863,413,9,8.654895023997893,-3191.1449460833996,0.011826,False,,False,,,,,29
97.05,4.784711674999997,0.796630859375,0.502685546875,0.065185546875,-4.427480916030534,6.442748091603053,6.290076335877862,2951,391,3,8.437365727122893,-3192.2774622220627,0.003942,False,,False,,,,,29
97.05,4.786714152000002,0.796630859375,0.502685546875,0.065185546875,-4.427480916030534,6.442748091603053,6.290076335877862,2951,391,3,8.437365727122893,-3192.2774622220627,0.003942,False,,False,,,,,29
97.055,4.788714850999995,0.790771484375,0.521728515625,0.061767578125,-4.0,6.045801526717557,4.213740458015267,3032,348,-1,8.237139897044768,-3193.193055199515,-0.001314,False,,False,,,,,29
97.055,4.790715050000003,0.790771484375,0.521728515625,0.061767578125,-4.0,6.045801526717557,4.213740458015267,3032,348,-1,8.237139897044768,-3193.193055199515,-0.001314,False,,False,,,,,29
97.055,4.792716897999995,0.790771484375,0.521728515625,0.061767578125,-4.0,6.045801526717557,4.213740458015267,3032,348,-1,8.237139897044768,-3193.193055199515,-0.001314,False,,False,,,,,29
97.06,4.7947181709999995,0.798583984375,0.515380859375,0.04296875,-2.229007633587786,6.8396946564885495,2.6259541984732824,3108,332,-2,8.049273686107268,-3193.865436529484,-0.002628,False,,False,,,,,29
97.06,4.796723665999991,0.798583984375,0.515380859375,0.04296875,-2.229007633587786,6.8396946564885495,2.6259541984732824,3108,332,-2,8.049273686107268,-3193.865436529484,-0.002628,False,,False,,,,,29
97.065,4.798720642999996,0.7958984375,0.508056640625,0.038818359375,-1.4351145038167938,7.022900763358779,1.8625954198473282,3176,303,-5,7.881182865794768,-3194.2797023225326,-0.0065699999999999995,False,,False,,,,,29
97.065,4.80072149099999,0.7958984375,0.508056640625,0.038818359375,-1.4351145038167938,7.022900763358779,1.8625954198473282,3176,303,-5,7.881182865794768,-3194.2797023225326,-0.0065699999999999995,False,,False,,,,,29
97.065,4.802725855999995,0.7958984375,0.508056640625,0.038818359375,-1.4351145038167938,7.022900763358779,1.8625954198473282,3176,303,-5,7.881182865794768,-3194.2797023225326,-0.0065699999999999995,False,,False,,,,,29
97.07000000000001,4.804729444000003,0.8232421875,0.509521484375,0.03369140625,0.0,7.816793893129771,1.0076335877862594,3239,272,-9,7.725451664622893,-3194.4253240607663,-0.011826,False,,False,,,,,29
97.07000000000001,4.806730772999998,0.8232421875,0.509521484375,0.03369140625,0.0,7.816793893129771,1.0076335877862594,3239,272,-9,7.725451664622893,-3194.4253240607663,-0.011826,False,,False,,,,,29
97.075,4.808732915999997,0.81787109375,0.50732421875,0.026123046875,-0.2748091603053435,7.694656488549618,-0.4580152671755725,3293,232,-8,7.591967777904143,-3194.2955887308203,-0.010512,False,,False,,,,,29
97.075,4.810736652000003,0.81787109375,0.50732421875,0.026123046875,-0.2748091603053435,7.694656488549618,-0.4580152671755725,3293,232,-8,7.591967777904143,-3194.2955887308203,-0.010512,False,,False,,,,,29
97.075,4.8127363139999915,0.81787109375,0.50732421875,0.026123046875,-0.2748091603053435,7.694656488549618,-0.4580152671755725,3293,232,-8,7.591967777904143,-3194.2955887308203,-0.010512,False,,False,,,,,29
97.08,4.814740827999998,0.84716796875,0.507568359375,0.035888671875,-0.42748091603053434,6.412213740458015,-1.6793893129770991,3337,189,-7,7.483203129466643,-3193.87812231856,-0.009198,False,,False,,,,,29
97.08,4.816746840999997,0.84716796875,0.507568359375,0.035888671875,-0.42748091603053434,6.412213740458015,-1.6793893129770991,3337,189,-7,7.483203129466643,-3193.87812231856,-0.009198,False,,False,,,,,29
97.08500000000001,4.818741781999989,0.843017578125,0.486572265625,0.0205078125,1.7709923664122136,8.427480916030534,-1.1908396946564885,3375,166,-4,7.389270023997893,-3193.163152799401,-0.005256,False,,False,,,,,29
97.08500000000001,4.820748035999998,0.843017578125,0.486572265625,0.0205078125,1.7709923664122136,8.427480916030534,-1.1908396946564885,3375,166,-4,7.389270023997893,-3193.163152799401,-0.005256,False,,False,,,,,29
97.08500000000001,4.822747253999992,0.843017578125,0.486572265625,0.0205078125,1.7709923664122136,8.427480916030534,-1.1908396946564885,3375,166,-4,7.389270023997893,-3193.163152799401,-0.005256,False,,False,,,,,29
97.09,4.824748767999992,0.84765625,0.501953125,0.028076171875,0.549618320610687,6.625954198473282,-3.541984732824427,3402,110,-5,7.322528080638518,-3192.150390067979,-0.0065699999999999995,False,,False,,,,,29
97.09,4.826748115000001,0.84765625,0.501953125,0.028076171875,0.549618320610687,6.625954198473282,-3.541984732824427,3402,110,-5,7.322528080638518,-3192.150390067979,-0.0065699999999999995,False,,False,,,,,29
97.095,4.828752109999996,0.859619140625,0.4736328125,0.0234375,0.0,7.358778625954198,-2.778625954198473,3423,89,-3,7.270617680247893,-3190.8421147979925,-0.003942,False,,False,,,,,29
97.095,4.830750014000003,0.859619140625,0.4736328125,0.0234375,0.0,7.358778625954198,-2.778625954198473,3423,89,-3,7.270617680247893,-3190.8421147979925,-0.003942,False,,False,,,,,29
97.095,4.832753639000003,0.859619140625,0.4736328125,0.0234375,0.0,7.358778625954198,-2.778625954198473,3423,89,-3,7.270617680247893,-3190.8421147979925,-0.003942,False,,False,,,,,29
97.10000000000001,4.834758651999991,0.86572265625,0.462890625,0.039794921875,3.0534351145038165,7.083969465648854,-3.145038167938931,3439,74,3,7.231066898997893,-3189.255260361777,0.003942,False,,False,,,,,29
97.10000000000001,4.836758239999995,0.86572265625,0.462890625,0.039794921875,3.0534351145038165,7.083969465648854,-3.145038167938931,3439,74,3,7.231066898997893,-3189.255260361777,0.003942,False,,False,,,,,29
97.105,4.838757755000003,0.8662109375,0.458984375,0.0615234375,1.7099236641221374,7.419847328244274,-3.9389312977099236,3444,18,4,7.218707279857268,-3187.409829272147,0.005256,False,,False,,,,,29
97.105,4.840758231999999,0.8662109375,0.458984375,0.0615234375,1.7099236641221374,7.419847328244274,-3.9389312977099236,3444,18,4,7.218707279857268,-3187.409829272147,0.005256,False,,False,,,,,29
97.105,4.842760708,0.8662109375,0.458984375,0.0615234375,1.7099236641221374,7.419847328244274,-3.9389312977099236,3444,18,4,7.218707279857268,-3187.409829272147,0.005256,False,,False,,,,,29
97.11,4.844761648000002,0.868408203125,0.432373046875,0.06787109375,1.2213740458015268,7.8473282442748085,-3.633587786259542,3444,-8,1,7.218707279857268,-3185.3173606741834,0.001314,False,,False,,,,,29
97.11,4.846765292000001,0.868408203125,0.432373046875,0.06787109375,1.2213740458015268,7.8473282442748085,-3.633587786259542,3444,-8,1,7.218707279857268,-3185.3173606741834,0.001314,False,,False,,,,,29
97.11500000000001,4.848763898999991,0.87890625,0.4345703125,0.07373046875,4.030534351145038,9.16030534351145,-3.114503816793893,3443,5,-1,7.221179203685393,-3183.008998734766,-0.001314,False,,False,,,,,29
97.11500000000001,4.8507647830000025,0.87890625,0.4345703125,0.07373046875,4.030534351145038,9.16030534351145,-3.114503816793893,3443,5,-1,7.221179203685393,-3183.008998734766,-0.001314,False,,False,,,,,29
97.11500000000001,4.852766500999991,0.87890625,0.4345703125,0.07373046875,4.030534351145038,9.16030534351145,-3.114503816793893,3443,5,-1,7.221179203685393,-3183.008998734766,-0.001314,False,,False,,,,,29
97.12,4.854768366000002,0.88623046875,0.40283203125,0.0830078125,5.740458015267175,11.236641221374045,-2.900763358778626,3444,0,2,7.218707279857268,-3180.5443829374503,0.002628,False,,False,,,,,29
97.12,4.856771675999994,0.88623046875,0.40283203125,0.0830078125,5.740458015267175,11.236641221374045,-2.900763358778626,3444,0,2,7.218707279857268,-3180.5443829374503,0.002628,False,,False,,,,,29
97.125,4.8587714680000005,0.89111328125,0.39111328125,0.082763671875,6.1679389312977095,12.48854961832061,-2.564885496183206,3445,9,-1,7.216235356029143,-3177.9900300037957,-0.001314,False,,False,,,,,29
97.125,4.860773166999991,0.89111328125,0.39111328125,0.082763671875,6.1679389312977095,12.48854961832061,-2.564885496183206,3445,9,-1,7.216235356029143,-3177.9900300037957,-0.001314,False,,False,,,,,29
97.125,4.8627744779999915,0.89111328125,0.39111328125,0.082763671875,6.1679389312977095,12.48854961832061,-2.564885496183206,3445,9,-1,7.216235356029143,-3177.9900300037957,-0.001314,False,,False,,,,,29
97.13,4.864775139999992,0.900634765625,0.383056640625,0.08642578125,6.412213740458015,13.587786259541984,-2.595419847328244,3444,7,0,7.218707279857268,-3175.397554997404,0.0,False,,False,,,,,29
97.13,4.866778357000001,0.900634765625,0.383056640625,0.08642578125,6.412213740458015,13.587786259541984,-2.595419847328244,3444,7,0,7.218707279857268,-3175.397554997404,0.0,False,,False,,,,,29
97.135,4.868777722999994,0.903564453125,0.37939453125,0.090576171875,6.717557251908397,14.534351145038167,-2.351145038167939,3447,10,-7,7.211291508372893,-3172.8107213664107,-0.009198,False,,False,,,,,29
97.135,4.870779478000003,0.903564453125,0.37939453125,0.090576171875,6.717557251908397,14.534351145038167,-2.351145038167939,3447,10,-7,7.211291508372893,-3172.8107213664107,-0.009198,False,,False,,,,,29
97.135,4.872780528999996,0.903564453125,0.37939453125,0.090576171875,6.717557251908397,14.534351145038167,-2.351145038167939,3447,10,-7,7.211291508372893,-3172.8107213664107,-0.009198,False,,False,,,,,29
97.14,4.87478248699999,0.906494140625,0.364990234375,0.09033203125,8.82442748091603,17.2824427480916,-1.3740458015267174,3450,16,-2,7.203875736888518,-3170.276828366532,-0.002628,False,,False,,,,,29
97.14,4.876786074999998,0.906494140625,0.364990234375,0.09033203125,8.82442748091603,17.2824427480916,-1.3740458015267174,3450,16,-2,7.203875736888518,-3170.276828366532,-0.002628,False,,False,,,,,29
97.145,4.878784349,0.91650390625,0.35400390625,0.0927734375,10.320610687022901,18.62595419847328,-0.21374045801526717,3458,38,6,7.184100346263518,-3167.8400786429174,0.007884,False,,False,,,,,29
97.145,4.880785121999992,0.91650390625,0.35400390625,0.0927734375,10.320610687022901,18.62595419847328,-0.21374045801526717,3458,38,6,7.184100346263518,-3167.8400786429174,0.007884,False,,False,,,,,29
97.145,4.882786877000001,0.91650390625,0.35400390625,0.0927734375,10.320610687022901,18.62595419847328,-0.21374045801526717,3458,38,6,7.184100346263518,-3167.8400786429174,0.007884,False,,False,,,,,29
97.15,4.884788482999994,0.9462890625,0.336181640625,0.098876953125,13.282442748091603,20.244274809160306,2.229007633587786,3481,103,-3,7.127246098216643,-3165.56471861763,-0.003942,False,,False,,,,,29
97.15,4.886795144999994,0.9462890625,0.336181640625,0.098876953125,13.282442748091603,20.244274809160306,2.229007633587786,3481,103,-3,7.127246098216643,-3165.56471861763,-0.003942,False,,False,,,,,29
97.155,4.888792214999995,0.967041015625,0.319580078125,0.09619140625,18.3206106870229,22.77862595419847,4.458015267175572,3521,188,2,7.028369145091643,-3163.5505398205055,0.002628,False,,False,,,,,29
97.155,4.890793783999996,0.967041015625,0.319580078125,0.09619140625,18.3206106870229,22.77862595419847,4.458015267175572,3521,188,2,7.028369145091643,-3163.5505398205055,0.002628,False,,False,,,,,29
97.155,4.892795909,0.967041015625,0.319580078125,0.09619140625,18.3206106870229,22.77862595419847,4.458015267175572,3521,188,2,7.028369145091643,-3163.5505398205055,0.002628,False,,False,,,,,29
97.16,4.89479747899999,0.991943359375,0.28857421875,0.08837890625,20.702290076335878,25.954198473282442,7.480916030534351,3573,244,4,6.899829106029143,-3161.8934167659345,0.005256,False,,False,,,,,29
97.16,4.896798363000002,0.991943359375,0.28857421875,0.08837890625,20.702290076335878,25.954198473282442,7.480916030534351,3573,244,4,6.899829106029143,-3161.8934167659345,0.005256,False,,False,,,,,29
97.165,4.898799635999993,0.99658203125,0.2724609375,0.086181640625,21.862595419847327,26.47328244274809,9.435114503816793,3637,287,0,6.741625981029143,-3160.654117236091,0.0,False,,False,,,,,30
97.165,4.900800575999995,0.99658203125,0.2724609375,0.086181640625,21.862595419847327,26.47328244274809,9.435114503816793,3637,287,0,6.741625981029143,-3160.654117236091,0.0,False,,False,,,,,30
97.165,4.902801367999999,0.99658203125,0.2724609375,0.086181640625,21.862595419847327,26.47328244274809,9.435114503816793,3637,287,0,6.741625981029143,-3160.654117236091,0.0,False,,False,,,,,30
97.17,4.9048028819999985,1.023681640625,0.29248046875,0.098388671875,23.603053435114504,27.175572519083968,10.045801526717558,3712,323,8,6.556231693919768,-3159.8667189832204,0.010512,False,,False,,,,,30
97.17,4.9068058219999955,1.023681640625,0.29248046875,0.098388671875,23.603053435114504,27.175572519083968,10.045801526717558,3712,323,8,6.556231693919768,-3159.8667189832204,0.010512,False,,False,,,,,30
97.175,4.9088058919999895,0.9990234375,0.286376953125,0.08349609375,21.954198473282442,27.358778625954198,9.587786259541984,3788,333,9,6.368365482982268,-3159.5317186562747,0.011826,False,,False,,,,,30
97.175,4.910806942999997,0.9990234375,0.286376953125,0.08349609375,21.954198473282442,27.358778625954198,9.587786259541984,3788,333,9,6.368365482982268,-3159.5317186562747,0.011826,False,,False,,,,,30
97.175,4.912807807999997,0.9990234375,0.286376953125,0.08349609375,21.954198473282442,27.358778625954198,9.587786259541984,3788,333,9,6.368365482982268,-3159.5317186562747,0.011826,False,,False,,,,,30
97.18,4.914809118999997,0.994384765625,0.299560546875,0.062744140625,17.98473282442748,25.526717557251906,8.946564885496183,3862,327,8,6.185443119701018,-3159.6000061757827,0.010512,False,,False,,,,,30
