state_time,loop_time,accel_x,accel_y,accel_z,gyro_x,gyro_y,gyro_z,motor_angle,motor_velocity,motor_current,hip_angle,hip_velocity,hip_torque_from_current,did_heel_strike,gait_phase,did_toe_off,commanded_current,commanded_position,commanded_torque,commanded_voltage,temperature
287.327,1.6178997729999764,-0.974853515625,0.396728515625,-0.03857421875,-0.4580152671755725,-3.5725190839694654,0.0916030534351145,3605,19,3,-6.791109494946346,-0.01354962246785878,0.003942,False,,False,,,,,30
287.327,1.6199001190000217,-0.974853515625,0.396728515625,-0.03857421875,-0.4580152671755725,-3.5725190839694654,0.0916030534351145,3605,19,3,-6.791109494946346,-0.01354962246785878,0.003942,False,,False,,,,,30
287.332,1.6219032239999933,-0.9765625,0.399169921875,-0.037841796875,0.3053435114503817,-2.3206106870229006,-0.183206106870229,3612,24,0,-6.773806028149471,11.361059072977449,0.0,False,,False,,,,,30
287.332,1.6239027919999671,-0.9765625,0.399169921875,-0.037841796875,0.3053435114503817,-2.3206106870229006,-0.183206106870229,3612,24,0,-6.773806028149471,11.361059072977449,0.0,False,,False,,,,,30
287.332,1.6259033039999622,-0.9765625,0.399169921875,-0.037841796875,0.3053435114503817,-2.3206106870229006,-0.183206106870229,3612,24,0,-6.773806028149471,11.361059072977449,0.0,False,,False,,,,,30
287.337,1.6279044469999917,-0.9775390625,0.406494140625,-0.038330078125,0.183206106870229,-1.618320610687023,-0.12213740458015267,3618,25,2,-6.758974485180721,54.871965684574924,0.002628,False,,False,,,,,30
287.337,1.6299060149999605,-0.9775390625,0.406494140625,-0.038330078125,0.183206106870229,-1.618320610687023,-0.12213740458015267,3618,25,2,-6.758974485180721,54.871965684574924,0.002628,False,,False,,,,,30
287.342,1.6319108600000618,-0.969970703125,0.415283203125,-0.039794921875,-0.42748091603053434,-0.6717557251908397,0.4580152671755725,3624,23,2,-6.744142942211971,136.04360446434418,0.002628,False,,False,,,,,30
287.342,1.6339089839999588,-0.969970703125,0.415283203125,-0.039794921875,-0.42748091603053434,-0.6717557251908397,0.4580152671755725,3624,23,2,-6.744142942211971,136.04360446434418,0.002628,False,,False,,,,,30
287.342,1.6359106810000412,-0.969970703125,0.415283203125,-0.039794921875,-0.42748091603053434,-0.6717557251908397,0.4580152671755725,3624,23,2,-6.744142942211971,136.04360446434418,0.002628,False,,False,,,,,30
287.347,1.6379126750000523,-0.958251953125,0.423583984375,-0.041015625,-1.3435114503816794,-0.061068702290076333,0.7938931297709924,3622,-4,2,-6.749086789868221,247.55209135585133,0.002628,False,,False,,,,,30
287.347,1.6399137990000554,-0.958251953125,0.423583984375,-0.041015625,-1.3435114503816794,-0.061068702290076333,0.7938931297709924,3622,-4,2,-6.749086789868221,247.55209135585133,0.002628,False,,False,,,,,30
287.35200000000003,1.6419154599999501,-0.95166015625,0.4404296875,-0.042724609375,0.48854961832061067,0.7022900763358778,0.3969465648854962,3623,6,-1,-6.746614866040096,382.81936138621637,-0.001314,False,,False,,,,,30
287.35200000000003,1.6439169720000564,-0.95166015625,0.4404296875,-0.042724609375,0.48854961832061067,0.7022900763358778,0.3969465648854962,3623,6,-1,-6.746614866040096,382.81936138621637,-0.001314,False,,False,,,,,30
287.35200000000003,1.6459179839999933,-0.95166015625,0.4404296875,-0.042724609375,0.48854961832061067,0.7022900763358778,0.3969465648854962,3623,6,-1,-6.746614866040096,382.81936138621637,-0.001314,False,,False,,,,,30
287.357,1.6479194969999753,-0.9384765625,0.436279296875,-0.04248046875,2.015267175572519,0.4580152671755725,0.030534351145038167,3622,0,1,-6.749086789868221,536.0103068140319,0.001314,False,,False,,,,,30
287.357,1.6499214169999732,-0.9384765625,0.436279296875,-0.04248046875,2.015267175572519,0.4580152671755725,0.030534351145038167,3622,0,1,-6.749086789868221,536.0103068140319,0.001314,False,,False,,,,,30
287.362,1.6519226880000133,-0.935791015625,0.42578125,-0.041015625,3.114503816793893,-0.030534351145038167,-0.3053435114503817,3623,-1,2,-6.746614866040096,701.9891796507169,0.002628,False,,False,,,,,30
287.362,1.6539242750000085,-0.935791015625,0.42578125,-0.041015625,3.114503816793893,-0.030534351145038167,-0.3053435114503817,3623,-1,2,-6.746614866040096,701.9891796507169,0.002628,False,,False,,,,,30
287.362,1.6559253980000221,-0.935791015625,0.42578125,-0.041015625,3.114503816793893,-0.030534351145038167,-0.3053435114503817,3623,-1,2,-6.746614866040096,701.9891796507169,0.002628,False,,False,,,,,30
287.367,1.6579270959999803,-0.930419921875,0.419189453125,-0.039306640625,4.091603053435114,-0.24427480916030533,-0.7938931297709924,3624,2,2,-6.744142942211971,876.2729612176794,0.002628,False,,False,,,,,30
287.367,1.6599285339999597,-0.930419921875,0.419189453125,-0.039306640625,4.091603053435114,-0.24427480916030533,-0.7938931297709924,3624,2,2,-6.744142942211971,876.2729612176794,0.002628,False,,False,,,,,30
287.372,1.6619307879999496,-0.901611328125,0.427001953125,-0.030029296875,2.778625954198473,-0.12213740458015267,-0.33587786259541985,3623,2,1,-6.746614866040096,1054.9846585887744,0.001314,False,,False,,,,,30
287.372,1.6639318000000003,-0.901611328125,0.427001953125,-0.030029296875,2.778625954198473,-0.12213740458015267,-0.33587786259541985,3623,2,1,-6.746614866040096,1054.9846585887744,0.001314,False,,False,,,,,30
287.372,1.6659334050000325,-0.901611328125,0.427001953125,-0.030029296875,2.778625954198473,-0.12213740458015267,-0.33587786259541985,3623,2,1,-6.746614866040096,1054.9846585887744,0.001314,False,,False,,,,,30
287.377,1.6679342879999695,-0.907958984375,0.414794921875,-0.0302734375,3.236641221374046,-0.9770992366412213,-0.7938931297709924,3624,6,3,-6.744142942211971,1234.81079741258,0.003942,False,,False,,,,,30
287.377,1.6699362629999541,-0.907958984375,0.414794921875,-0.0302734375,3.236641221374046,-0.9770992366412213,-0.7938931297709924,3624,6,3,-6.744142942211971,1234.81079741258,0.003942,False,,False,,,,,30
287.382,1.6719386830000076,-0.894775390625,0.426025390625,-0.029541015625,4.2748091603053435,-1.4045801526717556,-0.732824427480916,3623,7,2,-6.746614866040096,1412.9648341604773,0.002628,False,,False,,,,,30
287.382,1.673939492000045,-0.894775390625,0.426025390625,-0.029541015625,4.2748091603053435,-1.4045801526717556,-0.732824427480916,3623,7,2,-6.746614866040096,1412.9648341604773,0.002628,False,,False,,,,,30
287.382,1.6759412820000534,-0.894775390625,0.426025390625,-0.029541015625,4.2748091603053435,-1.4045801526717556,-0.732824427480916,3623,7,2,-6.746614866040096,1412.9648341604773,0.002628,False,,False,,,,,30
287.387,1.6779422759999534,-0.888671875,0.42822265625,-0.031982421875,4.916030534351145,-2.015267175572519,-0.8549618320610687,3623,0,2,-6.746614866040096,1587.1363585004308,0.002628,False,,False,,,,,30
287.387,1.6799439369999618,-0.888671875,0.42822265625,-0.031982421875,4.916030534351145,-2.015267175572519,-0.8549618320610687,3623,0,2,-6.746614866040096,1587.1363585004308,0.002628,False,,False,,,,,30
287.392,1.6819455050000442,-0.897216796875,0.41162109375,-0.038330078125,6.137404580152672,-2.9618320610687023,-1.0076335877862594,3624,4,3,-6.744142942211971,1755.4524118702057,0.003942,False,,False,,,,,30
287.392,1.6839461839999785,-0.897216796875,0.41162109375,-0.038330078125,6.137404580152672,-2.9618320610687023,-1.0076335877862594,3624,4,3,-6.744142942211971,1755.4524118702057,0.003942,False,,False,,,,,30
287.392,1.6859472889999552,-0.897216796875,0.41162109375,-0.038330078125,6.137404580152672,-2.9618320610687023,-1.0076335877862594,3624,4,3,-6.744142942211971,1755.4524118702057,0.003942,False,,False,,,,,30
287.397,1.6879482450000296,-0.906005859375,0.408203125,-0.038330078125,6.687022900763359,-3.236641221374046,-1.0076335877862594,3623,-6,4,-6.746614866040096,1916.429814331831,0.005256,False,,False,,,,,30
287.397,1.689949888000001,-0.906005859375,0.408203125,-0.038330078125,6.687022900763359,-3.236641221374046,-1.0076335877862594,3623,-6,4,-6.746614866040096,1916.429814331831,0.005256,False,,False,,,,,30
287.402,1.6919511219999777,-0.906005859375,0.40576171875,-0.039306640625,7.0534351145038165,-3.633587786259542,-1.2213740458015268,3623,-3,2,-6.746614866040096,2068.927816368581,0.002628,False,,False,,,,,30
287.402,1.6939521159999913,-0.906005859375,0.40576171875,-0.039306640625,7.0534351145038165,-3.633587786259542,-1.2213740458015268,3623,-3,2,-6.746614866040096,2068.927816368581,0.002628,False,,False,,,,,30
287.402,1.6959529250000287,-0.906005859375,0.40576171875,-0.039306640625,7.0534351145038165,-3.633587786259542,-1.2213740458015268,3623,-3,2,-6.746614866040096,2068.927816368581,0.002628,False,,False,,,,,30
287.407,1.6979539740000291,-0.917236328125,0.3974609375,-0.042724609375,7.206106870229007,-3.847328244274809,-1.129770992366412,3623,-2,5,-6.746614866040096,2212.1178231758117,0.0065699999999999995,False,,False,,,,,30
287.407,1.699955616000011,-0.917236328125,0.3974609375,-0.042724609375,7.206106870229007,-3.847328244274809,-1.129770992366412,3623,-2,5,-6.746614866040096,2212.1178231758117,0.0065699999999999995,False,,False,,,,,30
287.412,1.7019572950000565,-0.92431640625,0.392578125,-0.0419921875,6.99236641221374,-3.3587786259541983,-0.9465648854961831,3624,4,2,-6.744142942211971,2345.4445737721408,0.002628,False,,False,,,,,30
287.412,1.7039581039999803,-0.92431640625,0.392578125,-0.0419921875,6.99236641221374,-3.3587786259541983,-0.9465648854961831,3624,4,2,-6.744142942211971,2345.4445737721408,0.002628,False,,False,,,,,30
287.412,1.7059599310000522,-0.92431640625,0.392578125,-0.0419921875,6.99236641221374,-3.3587786259541983,-0.9465648854961831,3624,4,2,-6.744142942211971,2345.4445737721408,0.002628,False,,False,,,,,30
287.41700000000003,1.70796172200005,-0.927978515625,0.39208984375,-0.046630859375,6.717557251908397,-2.9923664122137406,-0.7938931297709924,3623,-1,1,-6.746614866040096,2468.582519134615,0.001314,False,,False,,,,,30
287.41700000000003,1.7099630669999897,-0.927978515625,0.39208984375,-0.046630859375,6.717557251908397,-2.9923664122137406,-0.7938931297709924,3623,-1,1,-6.746614866040096,2468.582519134615,0.001314,False,,False,,,,,30
287.422,1.7119648760000246,-0.928955078125,0.39453125,-0.049072265625,7.0534351145038165,-2.8396946564885495,-0.6412213740458015,3622,-5,3,-6.749086789868221,2581.401346512432,0.003942,False,,False,,,,,30
287.422,1.7139657029999853,-0.928955078125,0.39453125,-0.049072265625,7.0534351145038165,-2.8396946564885495,-0.6412213740458015,3622,-5,3,-6.749086789868221,2581.401346512432,0.003942,False,,False,,,,,30
287.422,1.7159666050000624,-0.928955078125,0.39453125,-0.049072265625,7.0534351145038165,-2.8396946564885495,-0.6412213740458015,3622,-5,3,-6.749086789868221,2581.401346512432,0.003942,False,,False,,,,,30
287.427,1.7183017669999572,-0.9326171875,0.392578125,-0.048583984375,7.450381679389313,-2.687022900763359,-0.6412213740458015,3623,-4,3,-6.746614866040096,2683.9468222098776,0.003942,False,,False,,,,,30
287.427,1.7203023910000184,-0.9326171875,0.392578125,-0.048583984375,7.450381679389313,-2.687022900763359,-0.6412213740458015,3623,-4,3,-6.746614866040096,2683.9468222098776,0.003942,False,,False,,,,,30
287.432,1.722299903000021,-0.9189453125,0.39794921875,-0.046630859375,6.106870229007633,-2.045801526717557,0.5190839694656488,3623,0,2,-6.746614866040096,2776.4114596811532,0.002628,False,,False,,,,,30
287.432,1.7243008599999712,-0.9189453125,0.39794921875,-0.046630859375,6.106870229007633,-2.045801526717557,0.5190839694656488,3623,0,2,-6.746614866040096,2776.4114596811532,0.002628,False,,False,,,,,30
287.432,1.7263018730000113,-0.9189453125,0.39794921875,-0.046630859375,6.106870229007633,-2.045801526717557,0.5190839694656488,3623,0,2,-6.746614866040096,2776.4114596811532,0.002628,False,,False,,,,,30
287.437,1.7283032550000144,-0.9306640625,0.4052734375,-0.048583984375,6.137404580152672,-1.099236641221374,1.0381679389312977,3624,2,1,-6.744142942211971,2859.0988849911087,0.001314,False,,False,,,,,30
287.437,1.7303050269999858,-0.9306640625,0.4052734375,-0.048583984375,6.137404580152672,-1.099236641221374,1.0381679389312977,3624,2,1,-6.744142942211971,2859.0988849911087,0.001314,False,,False,,,,,30
287.442,1.7323066879999942,-0.916015625,0.4052734375,-0.048583984375,7.236641221374046,-0.9770992366412213,1.0381679389312977,3625,7,2,-6.741671018383846,2932.4049281042885,0.002628,False,,False,,,,,30
287.442,1.7343083670000397,-0.916015625,0.4052734375,-0.048583984375,7.236641221374046,-0.9770992366412213,1.0381679389312977,3625,7,2,-6.741671018383846,2932.4049281042885,0.002628,False,,False,,,,,30
287.442,1.7363099530000454,-0.916015625,0.4052734375,-0.048583984375,7.236641221374046,-0.9770992366412213,1.0381679389312977,3625,7,2,-6.741671018383846,2932.4049281042885,0.002628,False,,False,,,,,30
287.447,1.738310947000059,-0.923095703125,0.41064453125,-0.044677734375,8.396946564885496,-1.282442748091603,0.8549618320610687,3625,11,5,-6.741671018383846,2996.795085613806,0.0065699999999999995,False,,False,,,,,30
287.447,1.7403123670000014,-0.923095703125,0.41064453125,-0.044677734375,8.396946564885496,-1.282442748091603,0.8549618320610687,3625,11,5,-6.741671018383846,2996.795085613806,0.0065699999999999995,False,,False,,,,,30
287.452,1.742317842000034,-0.9189453125,0.3916015625,-0.046142578125,8.396946564885496,-0.549618320610687,1.0381679389312977,3627,11,4,-6.736727170727596,3052.7882247184566,0.005256,False,,False,,,,,30
287.452,1.744344725000019,-0.9189453125,0.3916015625,-0.046142578125,8.396946564885496,-0.549618320610687,1.0381679389312977,3627,11,4,-6.736727170727596,3052.7882247184566,0.005256,False,,False,,,,,30
287.452,1.7463424789999635,-0.9189453125,0.3916015625,-0.046142578125,8.396946564885496,-0.549618320610687,1.0381679389312977,3627,11,4,-6.736727170727596,3052.7882247184566,0.005256,False,,False,,,,,30
287.457,1.7483436390000406,-0.91552734375,0.39697265625,-0.0478515625,7.969465648854961,-0.0916030534351145,1.0687022900763359,3626,7,4,-6.739199094555721,3100.9403768218604,0.005256,False,,False,,,,,30
287.457,1.7503453550000359,-0.91552734375,0.39697265625,-0.0478515625,7.969465648854961,-0.0916030534351145,1.0687022900763359,3626,7,4,-6.739199094555721,3100.9403768218604,0.005256,False,,False,,,,,30
287.462,1.7523495159999811,-0.91357421875,0.4052734375,-0.049072265625,8.183206106870228,0.12213740458015267,1.2213740458015268,3627,4,0,-6.736727170727596,3141.8270504350426,0.0,False,,False,,,,,30
287.462,1.7543478799999548,-0.91357421875,0.4052734375,-0.049072265625,8.183206106870228,0.12213740458015267,1.2213740458015268,3627,4,0,-6.736727170727596,3141.8270504350426,0.0,False,,False,,,,,30
287.462,1.7563488739999684,-0.91357421875,0.4052734375,-0.049072265625,8.183206106870228,0.12213740458015267,1.2213740458015268,3627,4,0,-6.736727170727596,3141.8270504350426,0.0,False,,False,,,,,30
287.467,1.7583503869999504,-0.909423828125,0.411865234375,-0.04833984375,8.732824427480915,0.24427480916030533,1.3129770992366412,3627,0,2,-6.736727170727596,3176.038884728489,0.002628,False,,False,,,,,30
287.467,1.7603514920000407,-0.909423828125,0.411865234375,-0.04833984375,8.732824427480915,0.24427480916030533,1.3129770992366412,3627,0,2,-6.736727170727596,3176.038884728489,0.002628,False,,False,,,,,30
287.472,1.7623532630000227,-0.900634765625,0.416748046875,-0.045654296875,9.923664122137405,-0.4580152671755725,1.465648854961832,3628,1,0,-6.734255246899471,3204.168839051127,0.0,False,,False,,,,,30
287.472,1.7643544239999756,-0.900634765625,0.416748046875,-0.045654296875,9.923664122137405,-0.4580152671755725,1.465648854961832,3628,1,0,-6.734255246899471,3204.168839051127,0.0,False,,False,,,,,30
287.472,1.766356121000058,-0.900634765625,0.416748046875,-0.045654296875,9.923664122137405,-0.4580152671755725,1.465648854961832,3628,1,0,-6.734255246899471,3204.168839051127,0.0,False,,False,,,,,30
287.47700000000003,1.768357745000003,-0.8974609375,0.41162109375,-0.041259765625,10.259541984732824,-0.5801526717557252,1.465648854961832,3630,3,3,-6.729311399243221,3226.803225122924,0.003942,False,,False,,,,,30
287.47700000000003,1.7703587570000536,-0.8974609375,0.41162109375,-0.041259765625,10.259541984732824,-0.5801526717557252,1.465648854961832,3630,3,3,-6.729311399243221,3226.803225122924,0.003942,False,,False,,,,,30
287.482,1.7723604369999748,-0.8984375,0.41064453125,-0.035400390625,10.442748091603052,-0.916030534351145,1.5877862595419847,3631,6,2,-6.726839475415096,3244.5125051495424,0.002628,False,,False,,,,,30
287.482,1.7743617820000281,-0.8984375,0.41064453125,-0.035400390625,10.442748091603052,-0.916030534351145,1.5877862595419847,3631,6,2,-6.726839475415096,3244.5125051495424,0.002628,False,,False,,,,,30
287.482,1.7763628870000048,-0.8984375,0.41064453125,-0.035400390625,10.442748091603052,-0.916030534351145,1.5877862595419847,3631,6,2,-6.726839475415096,3244.5125051495424,0.002628,False,,False,,,,,30
287.487,1.778364363000037,-0.891845703125,0.409423828125,-0.03173828125,10.595419847328245,-1.3129770992366412,1.4961832061068703,3631,0,4,-6.726839475415096,3257.838446267984,0.005256,False,,False,,,,,30
287.487,1.7803659119999793,-0.891845703125,0.409423828125,-0.03173828125,10.595419847328245,-1.3129770992366412,1.4961832061068703,3631,0,4,-6.726839475415096,3257.838446267984,0.005256,False,,False,,,,,30
287.492,1.7823675170000115,-0.885009765625,0.404296875,-0.024169921875,11.17557251908397,-2.198473282442748,1.4961832061068703,3634,2,3,-6.719423703930721,3267.301687222922,0.003942,False,,False,,,,,30
287.492,1.7843690299999935,-0.885009765625,0.404296875,-0.024169921875,11.17557251908397,-2.198473282442748,1.4961832061068703,3634,2,3,-6.719423703930721,3267.301687222922,0.003942,False,,False,,,,,30
287.492,1.7863702270000203,-0.885009765625,0.404296875,-0.024169921875,11.17557251908397,-2.198473282442748,1.4961832061068703,3634,2,3,-6.719423703930721,3267.301687222922,0.003942,False,,False,,,,,30
287.497,1.7883714060000102,-0.883544921875,0.403076171875,-0.020263671875,11.32824427480916,-2.900763358778626,1.5572519083969465,3633,0,2,-6.721895627758846,3273.3958456014852,0.002628,False,,False,,,,,30
287.497,1.790372734000016,-0.883544921875,0.403076171875,-0.020263671875,11.32824427480916,-2.900763358778626,1.5572519083969465,3633,0,2,-6.721895627758846,3273.3958456014852,0.002628,False,,False,,,,,30
287.502,1.7923745609999742,-0.886474609375,0.40087890625,-0.0166015625,11.511450381679388,-3.633587786259542,1.7099236641221374,3634,0,2,-6.719423703930721,3276.575813950047,0.002628,False,,False,,,,,30
287.502,1.7943759810000302,-0.886474609375,0.40087890625,-0.0166015625,11.511450381679388,-3.633587786259542,1.7099236641221374,3634,0,2,-6.719423703930721,3276.575813950047,0.002628,False,,False,,,,,30
287.502,1.7963777710000386,-0.886474609375,0.40087890625,-0.0166015625,11.511450381679388,-3.633587786259542,1.7099236641221374,3634,0,2,-6.719423703930721,3276.575813950047,0.002628,False,,False,,,,,30
287.507,1.7983790240000417,-0.88232421875,0.396240234375,-0.014404296875,11.511450381679388,-4.305343511450381,1.5877862595419847,3635,4,4,-6.716951780102596,3277.270008546875,0.005256,False,,False,,,,,30
287.507,1.800380443999984,-0.88232421875,0.396240234375,-0.014404296875,11.511450381679388,-4.305343511450381,1.5877862595419847,3635,4,4,-6.716951780102596,3277.270008546875,0.005256,False,,False,,,,,30
287.512,1.8023822530000189,-0.884033203125,0.389404296875,-0.01220703125,11.603053435114504,-5.526717557251908,1.4961832061068703,3636,8,2,-6.714479856274471,3275.876683370954,0.002628,False,,False,,,,,30
287.512,1.8043840240000009,-0.884033203125,0.389404296875,-0.01220703125,11.603053435114504,-5.526717557251908,1.4961832061068703,3636,8,2,-6.714479856274471,3275.876683370954,0.002628,False,,False,,,,,30
287.512,1.806385778000049,-0.884033203125,0.389404296875,-0.01220703125,11.603053435114504,-5.526717557251908,1.4961832061068703,3636,8,2,-6.714479856274471,3275.876683370954,0.002628,False,,False,,,,,30
287.517,1.8083880679999993,-0.887451171875,0.38671875,-0.011474609375,11.572519083969466,-6.351145038167939,1.2519083969465647,3636,0,5,-6.714479856274471,3272.754119160623,0.0065699999999999995,False,,False,,,,,30
287.517,1.8103881910000155,-0.887451171875,0.38671875,-0.011474609375,11.572519083969466,-6.351145038167939,1.2519083969465647,3636,0,5,-6.714479856274471,3272.754119160623,0.0065699999999999995,False,,False,,,,,30
287.522,1.8123895370000582,-0.88818359375,0.380859375,-0.015869140625,11.358778625954198,-6.8396946564885495,1.2519083969465647,3637,2,2,-6.712007932446346,3268.2273129881987,0.002628,False,,False,,,,,30
287.522,1.8143905499999846,-0.88818359375,0.380859375,-0.015869140625,11.358778625954198,-6.8396946564885495,1.2519083969465647,3637,2,2,-6.712007932446346,3268.2273129881987,0.002628,False,,False,,,,,30
287.522,1.8163918210000247,-0.88818359375,0.380859375,-0.015869140625,11.358778625954198,-6.8396946564885495,1.2519083969465647,3637,2,2,-6.712007932446346,3268.2273129881987,0.002628,False,,False,,,,,30
287.527,1.8183934630000067,-0.898681640625,0.37646484375,-0.014892578125,11.236641221374045,-7.267175572519084,1.3129770992366412,3637,0,2,-6.712007932446346,3262.590479812132,0.002628,False,,False,,,,,30
287.527,1.8209647759999825,-0.898681640625,0.37646484375,-0.014892578125,11.236641221374045,-7.267175572519084,1.3129770992366412,3637,0,2,-6.712007932446346,3262.590479812132,0.002628,False,,False,,,,,30
287.532,1.8229660289999856,-0.90966796875,0.378662109375,-0.02099609375,10.870229007633588,-7.816793893129771,0.6412213740458015,3638,0,0,-6.709536008618221,3256.106011654283,0.0,False,,False,,,,,30
287.532,1.8249633000000358,-0.90966796875,0.378662109375,-0.02099609375,10.870229007633588,-7.816793893129771,0.6412213740458015,3638,0,0,-6.709536008618221,3256.106011654283,0.0,False,,False,,,,,30
287.537,1.8269646459999649,-0.913330078125,0.376953125,-0.0244140625,10.687022900763358,-7.8473282442748085,0.5801526717557252,3638,2,4,-6.709536008618221,3249.005857756569,0.005256,False,,False,,,,,30
287.537,1.828965659000005,-0.913330078125,0.376953125,-0.0244140625,10.687022900763358,-7.8473282442748085,0.5801526717557252,3638,2,4,-6.709536008618221,3249.005857756569,0.005256,False,,False,,,,,30
287.537,1.830968412000061,-0.913330078125,0.376953125,-0.0244140625,10.687022900763358,-7.8473282442748085,0.5801526717557252,3638,2,4,-6.709536008618221,3249.005857756569,0.005256,False,,False,,,,,30
287.54200000000003,1.8329686280000033,-0.919189453125,0.37841796875,-0.026123046875,10.534351145038167,-7.8473282442748085,0.6717557251908397,3638,-1,7,-6.709536008618221,3241.4913305347022,0.009198,False,,False,,,,,30
287.54200000000003,1.8349750290000202,-0.919189453125,0.37841796875,-0.026123046875,10.534351145038167,-7.8473282442748085,0.6717557251908397,3638,-1,7,-6.709536008618221,3241.4913305347022,0.009198,False,,False,,,,,30
287.547,1.8369728190000387,-0.922607421875,0.377685546875,-0.025390625,10.473282442748092,-7.7251908396946565,0.5190839694656488,3639,0,3,-6.707064084790096,3233.738758466286,0.003942,False,,False,,,,,30
287.547,1.8389736100000391,-0.922607421875,0.377685546875,-0.025390625,10.473282442748092,-7.7251908396946565,0.5190839694656488,3639,0,3,-6.707064084790096,3233.738758466286,0.003942,False,,False,,,,,30
287.547,1.8409755850000238,-0.922607421875,0.377685546875,-0.025390625,10.473282442748092,-7.7251908396946565,0.5190839694656488,3639,0,3,-6.707064084790096,3233.738758466286,0.003942,False,,False,,,,,30
287.552,1.8429769680000163,-0.92724609375,0.38134765625,-0.03271484375,10.290076335877862,-7.175572519083969,0.6106870229007634,3639,0,-1,-6.707064084790096,3225.900999512273,-0.001314,False,,False,,,,,30
287.552,1.8449783319999824,-0.92724609375,0.38134765625,-0.03271484375,10.290076335877862,-7.175572519083969,0.6106870229007634,3639,0,-1,-6.707064084790096,3225.900999512273,-0.001314,False,,False,,,,,30
287.557,1.8469792700000198,-0.926513671875,0.383544921875,-0.03564453125,10.229007633587786,-7.32824427480916,0.42748091603053434,3639,3,2,-6.707064084790096,3218.1036766235607,0.002628,False,,False,,,,,30
287.557,1.8489807089999886,-0.926513671875,0.383544921875,-0.03564453125,10.229007633587786,-7.32824427480916,0.42748091603053434,3639,3,2,-6.707064084790096,3218.1036766235607,0.002628,False,,False,,,,,30
287.557,1.8509830179999653,-0.926513671875,0.383544921875,-0.03564453125,10.229007633587786,-7.32824427480916,0.42748091603053434,3639,3,2,-6.707064084790096,3218.1036766235607,0.002628,False,,False,,,,,30
287.562,1.852983862999963,-0.927978515625,0.382080078125,-0.033203125,10.473282442748092,-6.931297709923664,0.4580152671755725,3639,0,2,-6.707064084790096,3210.451373243289,0.002628,False,,False,,,,,30
287.562,1.8549851909999688,-0.927978515625,0.382080078125,-0.033203125,10.473282442748092,-6.931297709923664,0.4580152671755725,3639,0,2,-6.707064084790096,3210.451373243289,0.002628,False,,False,,,,,30
287.567,1.8569869440000275,-0.928955078125,0.383544921875,-0.03515625,10.595419847328245,-6.778625954198473,0.6717557251908397,3639,-6,4,-6.707064084790096,3203.031334357353,0.005256,False,,False,,,,,30
287.567,1.8589880120000544,-0.928955078125,0.383544921875,-0.03515625,10.595419847328245,-6.778625954198473,0.6717557251908397,3639,-6,4,-6.707064084790096,3203.031334357353,0.005256,False,,False,,,,,30
287.567,1.860990208999965,-0.928955078125,0.383544921875,-0.03515625,10.595419847328245,-6.778625954198473,0.6717557251908397,3639,-6,4,-6.707064084790096,3203.031334357353,0.005256,False,,False,,,,,30
287.572,1.8629917030000342,-0.926513671875,0.380859375,-0.036376953125,10.595419847328245,-6.625954198473282,0.732824427480916,3639,0,3,-6.707064084790096,3195.913235115007,0.003942,False,,False,,,,,30
287.572,1.8649934190000295,-0.926513671875,0.380859375,-0.036376953125,10.595419847328245,-6.625954198473282,0.732824427480916,3639,0,3,-6.707064084790096,3195.913235115007,0.003942,False,,False,,,,,30
287.577,1.8669950610000114,-0.92724609375,0.383544921875,-0.031982421875,10.931297709923664,-6.381679389312977,0.7633587786259541,3639,0,4,-6.707064084790096,3189.1510321558503,0.005256,False,,False,,,,,30
287.577,1.8689968700000463,-0.92724609375,0.383544921875,-0.031982421875,10.931297709923664,-6.381679389312977,0.7633587786259541,3639,0,4,-6.707064084790096,3189.1510321558503,0.005256,False,,False,,,,,30
287.577,1.870998327000052,-0.92724609375,0.383544921875,-0.031982421875,10.931297709923664,-6.381679389312977,0.7633587786259541,3639,0,4,-6.707064084790096,3189.1510321558503,0.005256,False,,False,,,,,30
287.582,1.8729998019999812,-0.93017578125,0.380859375,-0.031494140625,11.053435114503817,-6.076335877862595,0.916030534351145,3640,0,1,-6.704592160961971,3182.786531720726,0.001314,False,,False,,,,,30
287.582,1.8750014080000028,-0.93017578125,0.380859375,-0.031494140625,11.053435114503817,-6.076335877862595,0.916030534351145,3640,0,1,-6.704592160961971,3182.786531720726,0.001314,False,,False,,,,,30
287.587,1.877002790000006,-0.9296875,0.3779296875,-0.028564453125,11.32824427480916,-5.893129770992366,1.0076335877862594,3641,5,1,-6.702120237133846,3176.850762324026,0.001314,False,,False,,,,,30
287.587,1.8790045619999773,-0.9296875,0.3779296875,-0.028564453125,11.32824427480916,-5.893129770992366,1.0076335877862594,3641,5,1,-6.702120237133846,3176.850762324026,0.001314,False,,False,,,,,30
287.587,1.881006186000036,-0.9296875,0.3779296875,-0.028564453125,11.32824427480916,-5.893129770992366,1.0076335877862594,3641,5,1,-6.702120237133846,3176.850762324026,0.001314,False,,False,,,,,30
287.592,1.8830074569999624,-0.9306640625,0.376953125,-0.02294921875,11.81679389312977,-5.374045801526718,1.099236641221374,3643,2,1,-6.697176389477596,3171.3634895595565,0.001314,False,,False,,,,,30
287.592,1.8850091550000343,-0.9306640625,0.376953125,-0.02294921875,11.81679389312977,-5.374045801526718,1.099236641221374,3643,2,1,-6.697176389477596,3171.3634895595565,0.001314,False,,False,,,,,30
287.597,1.8870110379999687,-0.926025390625,0.3759765625,-0.0234375,11.633587786259541,-5.190839694656488,1.282442748091603,3642,1,1,-6.699648313305721,3166.329392059427,0.001314,False,,False,,,,,30
287.597,1.8890121240000326,-0.926025390625,0.3759765625,-0.0234375,11.633587786259541,-5.190839694656488,1.282442748091603,3642,1,1,-6.699648313305721,3166.329392059427,0.001314,False,,False,,,,,30
287.597,1.8910134699999617,-0.926025390625,0.3759765625,-0.0234375,11.633587786259541,-5.190839694656488,1.282442748091603,3642,1,1,-6.699648313305721,3166.329392059427,0.001314,False,,False,,,,,30
287.60200000000003,1.8930142049999859,-0.93115234375,0.3759765625,-0.019775390625,11.877862595419847,-4.824427480916031,1.1908396946564885,3644,7,1,-6.694704465649471,3161.744031158384,0.001314,False,,False,,,,,30
287.60200000000003,1.8950154389999625,-0.93115234375,0.3759765625,-0.019775390625,11.877862595419847,-4.824427480916031,1.1908396946564885,3644,7,1,-6.694704465649471,3161.744031158384,0.001314,False,,False,,,,,30
287.607,1.897016710999992,-0.935791015625,0.37451171875,-0.0224609375,12.0,-4.580152671755725,1.3740458015267174,3643,7,1,-6.697176389477596,3157.6007711714724,0.001314,False,,False,,,,,30
287.607,1.8990177599999924,-0.935791015625,0.37451171875,-0.0224609375,12.0,-4.580152671755725,1.3740458015267174,3643,7,1,-6.697176389477596,3157.6007711714724,0.001314,False,,False,,,,,30
287.607,1.9013666270000158,-0.935791015625,0.37451171875,-0.0224609375,12.0,-4.580152671755725,1.3740458015267174,3643,7,1,-6.697176389477596,3157.6007711714724,0.001314,False,,False,,,,,30
287.612,1.9033668240000452,-0.9345703125,0.3798828125,-0.017822265625,12.274809160305344,-4.122137404580153,1.7709923664122136,3645,7,1,-6.692232541821346,3153.8876522304286,0.001314,False,,False,,,,,30
287.612,1.9053640959999711,-0.9345703125,0.3798828125,-0.017822265625,12.274809160305344,-4.122137404580153,1.7709923664122136,3645,7,1,-6.692232541821346,3153.8876522304286,0.001314,False,,False,,,,,30
287.617,1.9073653680000007,-0.9306640625,0.378662109375,-0.01806640625,12.366412213740457,-4.030534351145038,1.6793893129770991,3645,2,1,-6.692232541821346,3150.5902209216597,0.001314,False,,False,,,,,30
287.617,1.9093668799999932,-0.9306640625,0.378662109375,-0.01806640625,12.366412213740457,-4.030534351145038,1.6793893129770991,3645,2,1,-6.692232541821346,3150.5902209216597,0.001314,False,,False,,,,,30
287.617,1.9113680220000333,-0.9306640625,0.378662109375,-0.01806640625,12.366412213740457,-4.030534351145038,1.6793893129770991,3645,2,1,-6.692232541821346,3150.5902209216597,0.001314,False,,False,,,,,30
287.622,1.9133692760000258,-0.935302734375,0.37939453125,-0.017578125,12.549618320610687,-3.7557251908396947,1.7099236641221374,3646,5,0,-6.689760617993221,3147.688564655357,0.0,False,,False,,,,,30
287.622,1.9153724730000476,-0.935302734375,0.37939453125,-0.017578125,12.549618320610687,-3.7557251908396947,1.7099236641221374,3646,5,0,-6.689760617993221,3147.688564655357,0.0,False,,False,,,,,30
287.627,1.9173730969999951,-0.931884765625,0.37841796875,-0.017333984375,12.366412213740457,-3.66412213740458,1.8015267175572518,3646,1,1,-6.689760617993221,3145.158488987914,0.001314,False,,False,,,,,30
287.627,1.9193736280000167,-0.931884765625,0.37841796875,-0.017333984375,12.366412213740457,-3.66412213740458,1.8015267175572518,3646,1,1,-6.689760617993221,3145.158488987914,0.001314,False,,False,,,,,30
287.627,1.9213792140000123,-0.931884765625,0.37841796875,-0.017333984375,12.366412213740457,-3.66412213740458,1.8015267175572518,3646,1,1,-6.689760617993221,3145.158488987914,0.001314,False,,False,,,,,30
287.632,1.9233801340000127,-0.929931640625,0.380126953125,-0.02099609375,12.458015267175572,-3.5725190839694654,1.5877862595419847,3647,5,1,-6.687288694165096,3142.9761462929046,0.001314,False,,False,,,,,30
287.632,1.925377960999981,-0.929931640625,0.380126953125,-0.02099609375,12.458015267175572,-3.5725190839694654,1.5877862595419847,3647,5,1,-6.687288694165096,3142.9761462929046,0.001314,False,,False,,,,,30
287.637,1.9273792699999603,-0.929443359375,0.37939453125,-0.01953125,12.580152671755725,-3.7557251908396947,1.5877862595419847,3650,15,4,-6.679872922680721,3141.121905775245,0.005256,False,,False,,,,,30
287.637,1.9293806529999529,-0.929443359375,0.37939453125,-0.01953125,12.580152671755725,-3.7557251908396947,1.5877862595419847,3650,15,4,-6.679872922680721,3141.121905775245,0.005256,False,,False,,,,,30
287.637,1.9313822020000089,-0.929443359375,0.37939453125,-0.01953125,12.580152671755725,-3.7557251908396947,1.5877862595419847,3650,15,4,-6.679872922680721,3141.121905775245,0.005256,False,,False,,,,,30
287.642,1.933383436999975,-0.929931640625,0.3818359375,-0.0205078125,12.732824427480915,-3.7862595419847325,1.465648854961832,3652,15,4,-6.674929075024471,3139.576370271296,0.005256,False,,False,,,,,30
287.642,1.935385078999957,-0.929931640625,0.3818359375,-0.0205078125,12.732824427480915,-3.7862595419847325,1.465648854961832,3652,15,4,-6.674929075024471,3139.576370271296,0.005256,False,,False,,,,,30
287.647,1.9373861279999574,-0.9296875,0.3857421875,-0.019287109375,13.16030534351145,-4.091603053435114,1.129770992366412,3655,18,0,-6.667513303540096,3138.3134571941046,0.0,False,,False,,,,,30
287.647,1.9393875480000133,-0.9296875,0.3857421875,-0.019287109375,13.16030534351145,-4.091603053435114,1.129770992366412,3655,18,0,-6.667513303540096,3138.3134571941046,0.0,False,,False,,,,,30
287.647,1.941388763999953,-0.9296875,0.3857421875,-0.019287109375,13.16030534351145,-4.091603053435114,1.129770992366412,3655,18,0,-6.667513303540096,3138.3134571941046,0.0,False,,False,,,,,30
287.652,1.9433895549999534,-0.9296875,0.37744140625,-0.017333984375,14.259541984732824,-4.824427480916031,0.21374045801526717,3662,26,1,-6.650209836743221,3137.3143984234484,0.001314,False,,False,,,,,30
287.652,1.9453911599999856,-0.9296875,0.37744140625,-0.017333984375,14.259541984732824,-4.824427480916031,0.21374045801526717,3662,26,1,-6.650209836743221,3137.3143984234484,0.001314,False,,False,,,,,30
287.657,1.947392208999986,-0.930419921875,0.368408203125,-0.01318359375,15.450381679389313,-5.404580152671755,-0.48854961832061067,3673,55,2,-6.623018674633846,3136.5739832817267,0.002628,False,,False,,,,,30
287.657,1.949393461999989,-0.930419921875,0.368408203125,-0.01318359375,15.450381679389313,-5.404580152671755,-0.48854961832061067,3673,55,2,-6.623018674633846,3136.5739832817267,0.002628,False,,False,,,,,30
287.657,1.951395103999971,-0.930419921875,0.368408203125,-0.01318359375,15.450381679389313,-5.404580152671755,-0.48854961832061067,3673,55,2,-6.623018674633846,3136.5739832817267,0.002628,False,,False,,,,,30
287.662,1.953396153999961,-0.930419921875,0.3642578125,-0.01025390625,16.213740458015266,-6.015267175572519,-1.1603053435114503,3689,71,0,-6.583467893383846,3136.0912646025295,0.0,False,,False,,,,,30
287.662,1.9553974440000275,-0.930419921875,0.3642578125,-0.01025390625,16.213740458015266,-6.015267175572519,-1.1603053435114503,3689,71,0,-6.583467893383846,3136.0912646025295,0.0,False,,False,,,,,30
287.66700000000003,1.9573989010000332,-0.917724609375,0.375244140625,-0.0078125,14.961832061068701,-5.9541984732824424,-0.21374045801526717,3697,28,2,-6.563692502758846,3135.8420207114928,0.002628,False,,False,,,,,30
287.66700000000003,1.9594003949999887,-0.917724609375,0.375244140625,-0.0078125,14.961832061068701,-5.9541984732824424,-0.21374045801526717,3697,28,2,-6.563692502758846,3135.8420207114928,0.002628,False,,False,,,,,30
287.66700000000003,1.9614024070000369,-0.917724609375,0.375244140625,-0.0078125,14.961832061068701,-5.9541984732824424,-0.21374045801526717,3697,28,2,-6.563692502758846,3135.8420207114928,0.002628,False,,False,,,,,30
287.672,1.9634037160000162,-0.890625,0.385009765625,-0.010498046875,9.34351145038168,-5.343511450381679,1.2213740458015268,3695,-10,1,-6.568636350415096,3135.754247769472,0.001314,False,,False,,,,,30
287.672,1.9654050990000087,-0.890625,0.385009765625,-0.010498046875,9.34351145038168,-5.343511450381679,1.2213740458015268,3695,-10,1,-6.568636350415096,3135.754247769472,0.001314,False,,False,,,,,30
287.677,1.9674060930000223,-0.904052734375,0.401123046875,-0.017578125,11.66412213740458,-5.190839694656488,1.0076335877862594,3694,-5,3,-6.571108274243221,3135.7545832733667,0.003942,False,,False,,,,,30
287.677,1.9694072720000122,-0.904052734375,0.401123046875,-0.017578125,11.66412213740458,-5.190839694656488,1.0076335877862594,3694,-5,3,-6.571108274243221,3135.7545832733667,0.003942,False,,False,,,,,30
287.677,1.9714090989999704,-0.904052734375,0.401123046875,-0.017578125,11.66412213740458,-5.190839694656488,1.0076335877862594,3694,-5,3,-6.571108274243221,3135.7545832733667,0.003942,False,,False,,,,,30
287.682,1.9734099260000448,-0.887451171875,0.410888671875,-0.025146484375,14.198473282442748,-5.893129770992366,1.0687022900763359,3695,4,1,-6.568636350415096,3135.8179336662774,0.001314,False,,False,,,,,30
287.682,1.9754113650000136,-0.887451171875,0.410888671875,-0.025146484375,14.198473282442748,-5.893129770992366,1.0687022900763359,3695,4,1,-6.568636350415096,3135.8179336662774,0.001314,False,,False,,,,,30
287.687,1.9774127289999797,-0.890869140625,0.39892578125,-0.026611328125,15.17557251908397,-6.900763358778626,0.8854961832061068,3696,3,0,-6.566164426586971,3135.942073749076,0.0,False,,False,,,,,30
287.687,1.9794145749999643,-0.890869140625,0.39892578125,-0.026611328125,15.17557251908397,-6.900763358778626,0.8854961832061068,3696,3,0,-6.566164426586971,3135.942073749076,0.0,False,,False,,,,,30
287.692,1.9818901270000424,-0.90625,0.365234375,-0.0224609375,14.320610687022901,-6.351145038167939,0.6412213740458015,3694,-6,0,-6.571108274243221,3136.113516957295,0.0,False,,False,,,,,30
287.692,1.9838901770000348,-0.90625,0.365234375,-0.0224609375,14.320610687022901,-6.351145038167939,0.6412213740458015,3694,-6,0,-6.571108274243221,3136.113516957295,0.0,False,,False,,,,,30
287.692,1.9858874479999713,-0.90625,0.365234375,-0.0224609375,14.320610687022901,-6.351145038167939,0.6412213740458015,3694,-6,0,-6.571108274243221,3136.113516957295,0.0,False,,False,,,,,30
287.697,1.9878894419999824,-0.910888671875,0.363525390625,-0.02197265625,13.83206106870229,-6.381679389312977,0.549618320610687,3696,7,4,-6.566164426586971,3136.318496815036,0.005256,False,,False,,,,,30
287.697,1.9898906399999987,-0.910888671875,0.363525390625,-0.02197265625,13.83206106870229,-6.381679389312977,0.549618320610687,3696,7,4,-6.566164426586971,3136.318496815036,0.005256,False,,False,,,,,30
287.702,1.9918923369999675,-0.91064453125,0.36572265625,-0.026123046875,13.923664122137405,-6.137404580152672,0.24427480916030533,3695,1,0,-6.568636350415096,3136.552164461688,0.0,False,,False,,,,,30
287.702,1.9938938679999865,-0.91064453125,0.36572265625,-0.026123046875,13.923664122137405,-6.137404580152672,0.24427480916030533,3695,1,0,-6.568636350415096,3136.552164461688,0.0,False,,False,,,,,30
287.702,1.9959004180000193,-0.91064453125,0.36572265625,-0.026123046875,13.923664122137405,-6.137404580152672,0.24427480916030533,3695,1,0,-6.568636350415096,3136.552164461688,0.0,False,,False,,,,,30
287.707,1.9978997079999772,-0.9140625,0.371826171875,-0.02392578125,14.015267175572518,-6.229007633587786,0.15267175572519084,3695,0,2,-6.568636350415096,3136.804673415478,0.002628,False,,False,,,,,30
287.707,1.9998978690000513,-0.9140625,0.371826171875,-0.02392578125,14.015267175572518,-6.229007633587786,0.15267175572519084,3695,0,2,-6.568636350415096,3136.804673415478,0.002628,False,,False,,,,,30
287.712,2.0018998069999725,-0.918701171875,0.369873046875,-0.028076171875,14.412213740458014,-6.381679389312977,-0.030534351145038167,3694,-5,1,-6.571108274243221,3137.0657169295146,0.001314,False,,False,,,,,30
287.712,2.0039005419999967,-0.918701171875,0.369873046875,-0.028076171875,14.412213740458014,-6.381679389312977,-0.030534351145038167,3694,-5,1,-6.571108274243221,3137.0657169295146,0.001314,False,,False,,,,,30
287.712,2.0059017949999998,-0.918701171875,0.369873046875,-0.028076171875,14.412213740458014,-6.381679389312977,-0.030534351145038167,3694,-5,1,-6.571108274243221,3137.0657169295146,0.001314,False,,False,,,,,30
287.717,2.007903474000045,-0.91796875,0.3681640625,-0.026611328125,14.320610687022901,-6.442748091603053,-0.12213740458015267,3694,-2,1,-6.571108274243221,3137.3301237549135,0.001314,False,,False,,,,,30
287.717,2.0099050049999505,-0.91796875,0.3681640625,-0.026611328125,14.320610687022901,-6.442748091603053,-0.12213740458015267,3694,-2,1,-6.571108274243221,3137.3301237549135,0.001314,False,,False,,,,,30
287.722,2.011906962000012,-0.92041015625,0.368408203125,-0.02490234375,14.351145038167939,-6.534351145038167,0.030534351145038167,3693,0,1,-6.573580198071346,3137.5935158936245,0.001314,False,,False,,,,,30
287.722,2.0139081410000017,-0.92041015625,0.368408203125,-0.02490234375,14.351145038167939,-6.534351145038167,0.030534351145038167,3693,0,1,-6.573580198071346,3137.5935158936245,0.001314,False,,False,,,,,30
287.722,2.0159096160000445,-0.92041015625,0.368408203125,-0.02490234375,14.351145038167939,-6.534351145038167,0.030534351145038167,3693,0,1,-6.573580198071346,3137.5935158936245,0.001314,False,,False,,,,,30
287.72700000000003,2.0179111290000264,-0.927001953125,0.365234375,-0.025146484375,14.320610687022901,-6.534351145038167,-0.030534351145038167,3694,0,4,-6.571108274243221,3137.8540333695364,0.005256,False,,False,,,,,30
287.72700000000003,2.019912234000003,-0.927001953125,0.365234375,-0.025146484375,14.320610687022901,-6.534351145038167,-0.030534351145038167,3694,0,4,-6.571108274243221,3137.8540333695364,0.005256,False,,False,,,,,30
287.732,2.0219136719999824,-0.931396484375,0.359619140625,-0.019287109375,14.534351145038167,-6.65648854961832,-0.030534351145038167,3695,6,4,-6.568636350415096,3138.113741697564,0.005256,False,,False,,,,,30
287.732,2.023915239999951,-0.931396484375,0.359619140625,-0.019287109375,14.534351145038167,-6.65648854961832,-0.030534351145038167,3695,6,4,-6.568636350415096,3138.113741697564,0.005256,False,,False,,,,,30
287.732,2.02591695600006,-0.931396484375,0.359619140625,-0.019287109375,14.534351145038167,-6.65648854961832,-0.030534351145038167,3695,6,4,-6.568636350415096,3138.113741697564,0.005256,False,,False,,,,,30
287.737,2.0279186540000183,-0.932861328125,0.356201171875,-0.02099609375,14.198473282442748,-6.625954198473282,0.061068702290076333,3692,-2,1,-6.576052121899471,3138.3654292902224,0.001314,False,,False,,,,,30
287.737,2.029920796000056,-0.932861328125,0.356201171875,-0.02099609375,14.198473282442748,-6.625954198473282,0.061068702290076333,3692,-2,1,-6.576052121899471,3138.3654292902224,0.001314,False,,False,,,,,30
287.742,2.031922512000051,-0.935302734375,0.3486328125,-0.023193359375,14.076335877862595,-6.625954198473282,0.3053435114503817,3692,0,3,-6.576052121899471,3138.5978034204873,0.003942,False,,False,,,,,30
287.742,2.0339228020000064,-0.935302734375,0.3486328125,-0.023193359375,14.076335877862595,-6.625954198473282,0.3053435114503817,3692,0,3,-6.576052121899471,3138.5978034204873,0.003942,False,,False,,,,,30
287.742,2.035924463000015,-0.935302734375,0.3486328125,-0.023193359375,14.076335877862595,-6.625954198473282,0.3053435114503817,3692,0,3,-6.576052121899471,3138.5978034204873,0.003942,False,,False,,,,,30
287.747,2.037925900999994,-0.93798828125,0.343994140625,-0.024169921875,13.557251908396946,-6.5038167938931295,0.4580152671755725,3691,-7,1,-6.578524045727596,3138.8124328382114,0.001314,False,,False,,,,,30
287.747,2.039926895000008,-0.93798828125,0.343994140625,-0.024169921875,13.557251908396946,-6.5038167938931295,0.4580152671755725,3691,-7,1,-6.578524045727596,3138.8124328382114,0.001314,False,,False,,,,,30
287.752,2.041929184999958,-0.94091796875,0.34814453125,-0.025390625,13.251908396946565,-6.045801526717557,0.24427480916030533,3692,-2,0,-6.576052121899471,3139.014468943112,0.0,False,,False,,,,,30
287.752,2.043930586999977,-0.94091796875,0.34814453125,-0.025390625,13.251908396946565,-6.045801526717557,0.24427480916030533,3692,-2,0,-6.576052121899471,3139.014468943112,0.0,False,,False,,,,,30
287.752,2.045931729000017,-0.94091796875,0.34814453125,-0.025390625,13.251908396946565,-6.045801526717557,0.24427480916030533,3692,-2,0,-6.576052121899471,3139.014468943112,0.0,False,,False,,,,,30
287.757,2.0479332229999727,-0.93603515625,0.351806640625,-0.02587890625,13.129770992366412,-5.587786259541985,0.030534351145038167,3692,0,2,-6.576052121899471,3139.2066163242166,0.002628,False,,False,,,,,30
287.757,2.049934549999989,-0.93603515625,0.351806640625,-0.02587890625,13.129770992366412,-5.587786259541985,0.030534351145038167,3692,0,2,-6.576052121899471,3139.2066163242166,0.002628,False,,False,,,,,30
287.762,2.051936877000003,-0.936767578125,0.352294921875,-0.02392578125,12.885496183206106,-5.343511450381679,0.0916030534351145,3691,-3,1,-6.578524045727596,3139.3859109565647,0.001314,False,,False,,,,,30
287.762,2.0539377600000535,-0.936767578125,0.352294921875,-0.02392578125,12.885496183206106,-5.343511450381679,0.0916030534351145,3691,-3,1,-6.578524045727596,3139.3859109565647,0.001314,False,,False,,,,,30
287.762,2.0559387350000407,-0.936767578125,0.352294921875,-0.02392578125,12.885496183206106,-5.343511450381679,0.0916030534351145,3691,-3,1,-6.578524045727596,3139.3859109565647,0.001314,False,,False,,,,,30
287.767,2.057940507000012,-0.93212890625,0.349853515625,-0.0283203125,12.916030534351144,-5.068702290076335,-0.030534351145038167,3691,3,2,-6.578524045727596,3139.548267102928,0.002628,False,,False,,,,,30
287.767,2.0599415560000125,-0.93212890625,0.349853515625,-0.0283203125,12.916030534351144,-5.068702290076335,-0.030534351145038167,3691,3,2,-6.578524045727596,3139.548267102928,0.002628,False,,False,,,,,30
287.772,2.0619430689999945,-0.92626953125,0.355224609375,-0.022705078125,12.580152671755725,-4.458015267175572,0.12213740458015267,3690,-3,1,-6.580995969555721,3139.6940906506084,0.001314,False,,False,,,,,30
287.772,2.064570085000014,-0.92626953125,0.355224609375,-0.022705078125,12.580152671755725,-4.458015267175572,0.12213740458015267,3690,-3,1,-6.580995969555721,3139.6940906506084,0.001314,False,,False,,,,,30
287.772,2.0665723939999907,-0.92626953125,0.355224609375,-0.022705078125,12.580152671755725,-4.458015267175572,0.12213740458015267,3690,-3,1,-6.580995969555721,3139.6940906506084,0.001314,False,,False,,,,,30
287.777,2.068569479999951,-0.927490234375,0.35400390625,-0.022216796875,11.938931297709923,-4.2748091603053435,0.3053435114503817,3691,0,1,-6.578524045727596,3139.825751408403,0.001314,False,,False,,,,,30
287.777,2.07057106700006,-0.927490234375,0.35400390625,-0.022216796875,11.938931297709923,-4.2748091603053435,0.3053435114503817,3691,0,1,-6.578524045727596,3139.825751408403,0.001314,False,,False,,,,,30
287.782,2.0725722270000233,-0.923583984375,0.35302734375,-0.02392578125,11.419847328244275,-3.9083969465648853,0.33587786259541985,3690,-1,0,-6.580995969555721,3139.9454385092113,0.0,False,,False,,,,,30
287.782,2.0745742029999974,-0.923583984375,0.35302734375,-0.02392578125,11.419847328244275,-3.9083969465648853,0.33587786259541985,3690,-1,0,-6.580995969555721,3139.9454385092113,0.0,False,,False,,,,,30
287.782,2.076575141000035,-0.923583984375,0.35302734375,-0.02392578125,11.419847328244275,-3.9083969465648853,0.33587786259541985,3690,-1,0,-6.580995969555721,3139.9454385092113,0.0,False,,False,,,,,30
287.787,2.0785818570000174,-0.924560546875,0.35302734375,-0.0234375,11.32824427480916,-3.4198473282442747,0.48854961832061067,3691,0,1,-6.578524045727596,3140.0533676098494,0.001314,False,,False,,,,,30
287.787,2.0805809810000255,-0.924560546875,0.35302734375,-0.0234375,11.32824427480916,-3.4198473282442747,0.48854961832061067,3691,0,1,-6.578524045727596,3140.0533676098494,0.001314,False,,False,,,,,30
287.79200000000003,2.082579549000002,-0.92138671875,0.353271484375,-0.021728515625,11.145038167938932,-3.480916030534351,0.15267175572519084,3689,0,4,-6.583467893383846,3140.148099084879,0.005256,False,,False,,,,,30
287.79200000000003,2.084580747000018,-0.92138671875,0.353271484375,-0.021728515625,11.145038167938932,-3.480916030534351,0.15267175572519084,3689,0,4,-6.583467893383846,3140.148099084879,0.005256,False,,False,,,,,30
287.79200000000003,2.0865821109999843,-0.92138671875,0.353271484375,-0.021728515625,11.145038167938932,-3.480916030534351,0.15267175572519084,3689,0,4,-6.583467893383846,3140.148099084879,0.005256,False,,False,,,,,30
287.797,2.088583622999977,-0.926513671875,0.3505859375,-0.019775390625,11.145038167938932,-3.66412213740458,-0.030534351145038167,3691,1,4,-6.578524045727596,3140.230409400852,0.005256,False,,False,,,,,30
287.797,2.090585691000001,-0.926513671875,0.3505859375,-0.019775390625,11.145038167938932,-3.66412213740458,-0.030534351145038167,3691,1,4,-6.578524045727596,3140.230409400852,0.005256,False,,False,,,,,30
287.802,2.0925869070000545,-0.926513671875,0.3515625,-0.019287109375,11.358778625954198,-3.877862595419847,-0.183206106870229,3688,-8,0,-6.585939817211971,3140.301128543505,0.0,False,,False,,,,,30
287.802,2.0945879570000443,-0.926513671875,0.3515625,-0.019287109375,11.358778625954198,-3.877862595419847,-0.183206106870229,3688,-8,0,-6.585939817211971,3140.301128543505,0.0,False,,False,,,,,30
287.802,2.0965893950000236,-0.926513671875,0.3515625,-0.019287109375,11.358778625954198,-3.877862595419847,-0.183206106870229,3688,-8,0,-6.585939817211971,3140.301128543505,0.0,False,,False,,,,,30
287.807,2.0985907589999897,-0.9228515625,0.35107421875,-0.0185546875,10.259541984732824,-3.969465648854962,-0.030534351145038167,3690,1,1,-6.580995969555721,3140.359328775654,0.001314,False,,False,,,,,30
287.807,2.100592587000051,-0.9228515625,0.35107421875,-0.0185546875,10.259541984732824,-3.969465648854962,-0.030534351145038167,3690,1,1,-6.580995969555721,3140.359328775654,0.001314,False,,False,,,,,30
287.812,2.1025940990000436,-0.91845703125,0.3447265625,-0.014892578125,8.793893129770993,-3.847328244274809,0.15267175572519084,3690,4,2,-6.580995969555721,3140.411576787316,0.002628,False,,False,,,,,30
287.812,2.1045954999999594,-0.91845703125,0.3447265625,-0.014892578125,8.793893129770993,-3.847328244274809,0.15267175572519084,3690,4,2,-6.580995969555721,3140.411576787316,0.002628,False,,False,,,,,30
287.812,2.106596753999952,-0.91845703125,0.3447265625,-0.014892578125,8.793893129770993,-3.847328244274809,0.15267175572519084,3690,4,2,-6.580995969555721,3140.411576787316,0.002628,False,,False,,,,,30
287.817,2.108597840000016,-0.91943359375,0.346923828125,-0.0166015625,8.793893129770993,-4.091603053435114,-0.183206106870229,3690,-2,1,-6.580995969555721,3140.4598753107357,0.001314,False,,False,,,,,30
287.817,2.1105995750000375,-0.91943359375,0.346923828125,-0.0166015625,8.793893129770993,-4.091603053435114,-0.183206106870229,3690,-2,1,-6.580995969555721,3140.4598753107357,0.001314,False,,False,,,,,30
287.822,2.112600235000059,-0.922607421875,0.343505859375,-0.02001953125,9.83206106870229,-4.793893129770992,-0.6412213740458015,3689,2,1,-6.583467893383846,3140.4987961950887,0.001314,False,,False,,,,,30
287.822,2.1146014890000515,-0.922607421875,0.343505859375,-0.02001953125,9.83206106870229,-4.793893129770992,-0.6412213740458015,3689,2,1,-6.583467893383846,3140.4987961950887,0.001314,False,,False,,,,,30
287.822,2.1166033160000097,-0.922607421875,0.343505859375,-0.02001953125,9.83206106870229,-4.793893129770992,-0.6412213740458015,3689,2,1,-6.583467893383846,3140.4987961950887,0.001314,False,,False,,,,,30
287.827,2.118605142999968,-0.923583984375,0.34765625,-0.019775390625,10.106870229007633,-4.885496183206107,-0.8549618320610687,3689,1,2,-6.583467893383846,3140.527511951726,0.002628,False,,False,,,,,30
287.827,2.120606729999963,-0.923583984375,0.34765625,-0.019775390625,10.106870229007633,-4.885496183206107,-0.8549618320610687,3689,1,2,-6.583467893383846,3140.527511951726,0.002628,False,,False,,,,,30
287.832,2.1226079460000165,-0.927001953125,0.3408203125,-0.021484375,7.908396946564885,-4.6106870229007635,-0.4580152671755725,3690,1,1,-6.580995969555721,3140.550849173725,0.001314,False,,False,,,,,30
287.832,2.1246093659999588,-0.927001953125,0.3408203125,-0.021484375,7.908396946564885,-4.6106870229007635,-0.4580152671755725,3690,1,1,-6.580995969555721,3140.550849173725,0.001314,False,,False,,,,,30
287.832,2.1266104889999724,-0.927001953125,0.3408203125,-0.021484375,7.908396946564885,-4.6106870229007635,-0.4580152671755725,3690,1,1,-6.580995969555721,3140.550849173725,0.001314,False,,False,,,,,30
287.837,2.128611835000015,-0.92626953125,0.3408203125,-0.022216796875,6.809160305343511,-4.122137404580153,-0.3969465648854962,3689,0,3,-6.583467893383846,3140.5711360094397,0.003942,False,,False,,,,,30
287.837,2.1306135140000606,-0.92626953125,0.3408203125,-0.022216796875,6.809160305343511,-4.122137404580153,-0.3969465648854962,3689,0,3,-6.583467893383846,3140.5711360094397,0.003942,False,,False,,,,,30
287.842,2.1326146190000372,-0.935302734375,0.336669921875,-0.029541015625,7.480916030534351,-4.427480916030534,-0.9465648854961831,3689,2,3,-6.583467893383846,3140.5849942195623,0.003942,False,,False,,,,,30
287.842,2.1346157609999636,-0.935302734375,0.336669921875,-0.029541015625,7.480916030534351,-4.427480916030534,-0.9465648854961831,3689,2,3,-6.583467893383846,3140.5849942195623,0.003942,False,,False,,,,,30
287.842,2.1366175140000223,-0.935302734375,0.336669921875,-0.029541015625,7.480916030534351,-4.427480916030534,-0.9465648854961831,3689,2,3,-6.583467893383846,3140.5849942195623,0.003942,False,,False,,,,,30
287.847,2.1386191750000307,-0.9404296875,0.348876953125,-0.03125,8.916030534351144,-4.458015267175572,-1.282442748091603,3688,-7,1,-6.585939817211971,3140.591479238036,0.001314,False,,False,,,,,30
287.847,2.1406208170000127,-0.9404296875,0.348876953125,-0.03125,8.916030534351144,-4.458015267175572,-1.282442748091603,3688,-7,1,-6.585939817211971,3140.591479238036,0.001314,False,,False,,,,,30
287.85200000000003,2.1426214770000342,-0.951171875,0.333984375,-0.033447265625,8.274809160305344,-4.122137404580153,-1.5267175572519083,3689,0,1,-6.583467893383846,3140.5934881131006,0.001314,False,,False,,,,,30
287.85200000000003,2.1446229709999898,-0.951171875,0.333984375,-0.033447265625,8.274809160305344,-4.122137404580153,-1.5267175572519083,3689,0,1,-6.583467893383846,3140.5934881131006,0.001314,False,,False,,,,,30
287.85200000000003,2.146624001999953,-0.951171875,0.333984375,-0.033447265625,8.274809160305344,-4.122137404580153,-1.5267175572519083,3689,0,1,-6.583467893383846,3140.5934881131006,0.001314,False,,False,,,,,30
287.857,2.1486255519999986,-0.9482421875,0.332275390625,-0.03173828125,7.480916030534351,-3.66412213740458,-1.4961832061068703,3687,-6,1,-6.588411741040096,3140.591720540883,0.001314,False,,False,,,,,30
287.857,2.1506274160000203,-0.9482421875,0.332275390625,-0.03173828125,7.480916030534351,-3.66412213740458,-1.4961832061068703,3687,-6,1,-6.588411741040096,3140.591720540883,0.001314,False,,False,,,,,30
287.862,2.1526292429999785,-0.955078125,0.33837890625,-0.0341796875,7.206106870229007,-3.0229007633587783,-1.618320610687023,3688,-2,0,-6.585939817211971,3140.5850264985916,0.0,False,,False,,,,,30
287.862,2.154630162999979,-0.955078125,0.33837890625,-0.0341796875,7.206106870229007,-3.0229007633587783,-1.618320610687023,3688,-2,0,-6.585939817211971,3140.5850264985916,0.0,False,,False,,,,,30
287.862,2.156631564999998,-0.955078125,0.33837890625,-0.0341796875,7.206106870229007,-3.0229007633587783,-1.618320610687023,3688,-2,0,-6.585939817211971,3140.5850264985916,0.0,False,,False,,,,,30
287.867,2.1586326699999745,-0.952392578125,0.339599609375,-0.033935546875,6.900763358778626,-2.778625954198473,-1.648854961832061,3688,7,1,-6.585939817211971,3140.577886089169,0.001314,False,,False,,,,,30
287.867,2.1606340519999776,-0.952392578125,0.339599609375,-0.033935546875,6.900763358778626,-2.778625954198473,-1.648854961832061,3688,7,1,-6.585939817211971,3140.577886089169,0.001314,False,,False,,,,,30
287.872,2.162635027999954,-0.951904296875,0.343505859375,-0.033203125,6.961832061068702,-1.8015267175572518,-1.648854961832061,3688,1,1,-6.585939817211971,3140.5722659346966,0.001314,False,,False,,,,,30
287.872,2.164635929000042,-0.951904296875,0.343505859375,-0.033203125,6.961832061068702,-1.8015267175572518,-1.648854961832061,3688,1,1,-6.585939817211971,3140.5722659346966,0.001314,False,,False,,,,,30
287.872,2.166637681999987,-0.951904296875,0.343505859375,-0.033203125,6.961832061068702,-1.8015267175572518,-1.648854961832061,3688,1,1,-6.585939817211971,3140.5722659346966,0.001314,False,,False,,,,,30
287.877,2.168638990999966,-0.95263671875,0.343505859375,-0.037109375,6.65648854961832,-1.3435114503816794,-1.83206106870229,3688,0,2,-6.585939817211971,3140.5662094232443,0.002628,False,,False,,,,,30
287.877,2.170640226000046,-0.95263671875,0.343505859375,-0.037109375,6.65648854961832,-1.3435114503816794,-1.83206106870229,3688,0,2,-6.585939817211971,3140.5662094232443,0.002628,False,,False,,,,,30
287.882,2.1726416820000622,-0.950927734375,0.345458984375,-0.037841796875,6.442748091603053,-0.8549618320610687,-1.7099236641221374,3687,-5,1,-6.588411741040096,3140.5580848365908,0.001314,False,,False,,,,,30
287.882,2.1746434540000337,-0.950927734375,0.345458984375,-0.037841796875,6.442748091603053,-0.8549618320610687,-1.7099236641221374,3687,-5,1,-6.588411741040096,3140.5580848365908,0.001314,False,,False,,,,,30
287.882,2.17664459599996,-0.950927734375,0.345458984375,-0.037841796875,6.442748091603053,-0.8549618320610687,-1.7099236641221374,3687,-5,1,-6.588411741040096,3140.5580848365908,0.001314,False,,False,,,,,30
287.887,2.178645663999987,-0.949951171875,0.346435546875,-0.03662109375,5.923664122137405,-0.4580152671755725,-1.8625954198473282,3686,-2,2,-6.590883664868221,3140.544765585652,0.002628,False,,False,,,,,30
287.887,2.180647269000019,-0.949951171875,0.346435546875,-0.03662109375,5.923664122137405,-0.4580152671755725,-1.8625954198473282,3686,-2,2,-6.590883664868221,3140.544765585652,0.002628,False,,False,,,,,30
287.892,2.182648151999956,-0.947509765625,0.347412109375,-0.037353515625,5.648854961832061,0.2748091603053435,-1.9541984732824427,3687,-2,4,-6.588411741040096,3140.5290809135963,0.005256,False,,False,,,,,30
287.892,2.1846495350000623,-0.947509765625,0.347412109375,-0.037353515625,5.648854961832061,0.2748091603053435,-1.9541984732824427,3687,-2,4,-6.588411741040096,3140.5290809135963,0.005256,False,,False,,,,,30
287.892,2.1866506210000125,-0.947509765625,0.347412109375,-0.037353515625,5.648854961832061,0.2748091603053435,-1.9541984732824427,3687,-2,4,-6.588411741040096,3140.5290809135963,0.005256,False,,False,,,,,30
287.897,2.1886522449999575,-0.945068359375,0.3515625,-0.03662109375,5.312977099236641,0.6717557251908397,-2.045801526717557,3687,4,3,-6.588411741040096,3140.5170146864325,0.003942,False,,False,,,,,30
287.897,2.1906536830000505,-0.945068359375,0.3515625,-0.03662109375,5.312977099236641,0.6717557251908397,-2.045801526717557,3687,4,3,-6.588411741040096,3140.5170146864325,0.003942,False,,False,,,,,30
287.902,2.192655011000056,-0.948486328125,0.34912109375,-0.03515625,5.312977099236641,0.9770992366412213,-2.1374045801526718,3686,-7,2,-6.590883664868221,3140.5063620508986,0.002628,False,,False,,,,,30
287.902,2.194656301000009,-0.948486328125,0.34912109375,-0.03515625,5.312977099236641,0.9770992366412213,-2.1374045801526718,3686,-7,2,-6.590883664868221,3140.5063620508986,0.002628,False,,False,,,,,30
287.902,2.1966577389999884,-0.948486328125,0.34912109375,-0.03515625,5.312977099236641,0.9770992366412213,-2.1374045801526718,3686,-7,2,-6.590883664868221,3140.5063620508986,0.002628,False,,False,,,,,30
287.907,2.1986592700000074,-0.940673828125,0.35791015625,-0.036865234375,5.007633587786259,1.2519083969465647,-2.0763358778625953,3687,-1,3,-6.588411741040096,3140.4952566659854,0.003942,False,,False,,,,,30
287.907,2.2006612640000185,-0.940673828125,0.35791015625,-0.036865234375,5.007633587786259,1.2519083969465647,-2.0763358778625953,3687,-1,3,-6.588411741040096,3140.4952566659854,0.003942,False,,False,,,,,30
287.912,2.202662665000048,-0.935546875,0.35986328125,-0.039306640625,4.458015267175572,1.5267175572519083,-2.0763358778625953,3687,2,2,-6.588411741040096,3140.4875141366024,0.002628,False,,False,,,,,30
287.912,2.20466430700003,-0.935546875,0.35986328125,-0.039306640625,4.458015267175572,1.5267175572519083,-2.0763358778625953,3687,2,2,-6.588411741040096,3140.4875141366024,0.002628,False,,False,,,,,30
287.912,2.2066658749999988,-0.935546875,0.35986328125,-0.039306640625,4.458015267175572,1.5267175572519083,-2.0763358778625953,3687,2,2,-6.588411741040096,3140.4875141366024,0.002628,False,,False,,,,,30
287.91700000000003,2.2090112790000376,-0.937744140625,0.362548828125,-0.03662109375,4.427480916030534,1.83206106870229,-1.8625954198473282,3687,1,1,-6.588411741040096,3140.4826990919373,0.001314,False,,False,,,,,30
287.91700000000003,2.2110114759999533,-0.937744140625,0.362548828125,-0.03662109375,4.427480916030534,1.83206106870229,-1.8625954198473282,3687,1,1,-6.588411741040096,3140.4826990919373,0.001314,False,,False,,,,,30
287.922,2.2138263089999555,-0.927001953125,0.362548828125,-0.03662109375,4.33587786259542,2.045801526717557,-1.9541984732824427,3688,12,3,-6.585939817211971,3140.4804046378663,0.003942,False,,False,,,,,30
287.922,2.215826729000014,-0.927001953125,0.362548828125,-0.03662109375,4.33587786259542,2.045801526717557,-1.9541984732824427,3688,12,3,-6.585939817211971,3140.4804046378663,0.003942,False,,False,,,,,30
287.927,2.2178255369999533,-0.9296875,0.364501953125,-0.037109375,4.213740458015267,2.015267175572519,-1.8015267175572518,3685,-5,3,-6.593355588696346,3140.4766726069147,0.003942,False,,False,,,,,30
287.927,2.219826993999959,-0.9296875,0.364501953125,-0.037109375,4.213740458015267,2.015267175572519,-1.8015267175572518,3685,-5,3,-6.593355588696346,3140.4766726069147,0.003942,False,,False,,,,,30
287.927,2.221850173000007,-0.9296875,0.364501953125,-0.037109375,4.213740458015267,2.015267175572519,-1.8015267175572518,3685,-5,3,-6.593355588696346,3140.4766726069147,0.003942,False,,False,,,,,30
287.932,2.22385129700001,-0.922119140625,0.365478515625,-0.037109375,4.091603053435114,1.8625954198473282,-1.618320610687023,3686,-3,-2,-6.590883664868221,3140.466419615515,-0.002628,False,,False,,,,,30
287.932,2.2258481979999942,-0.922119140625,0.365478515625,-0.037109375,4.091603053435114,1.8625954198473282,-1.618320610687023,3686,-3,-2,-6.590883664868221,3140.466419615515,-0.002628,False,,False,,,,,30
287.937,2.2278554880000456,-0.923583984375,0.3671875,-0.037841796875,3.969465648854962,1.8625954198473282,-1.618320610687023,3687,-1,2,-6.588411741040096,3140.4580179446257,0.002628,False,,False,,,,,30
287.937,2.229968871999972,-0.923583984375,0.3671875,-0.037841796875,3.969465648854962,1.8625954198473282,-1.618320610687023,3687,-1,2,-6.588411741040096,3140.4580179446257,0.002628,False,,False,,,,,30
287.942,2.231969661999983,-0.9208984375,0.369384765625,-0.035400390625,3.7862595419847325,1.648854961832061,-1.4045801526717556,3688,0,3,-6.585939817211971,3140.4584498946706,0.003942,False,,False,,,,,30
287.942,2.233969878000039,-0.9208984375,0.369384765625,-0.035400390625,3.7862595419847325,1.648854961832061,-1.4045801526717556,3688,0,3,-6.585939817211971,3140.4584498946706,0.003942,False,,False,,,,,30
287.942,2.235971002000042,-0.9208984375,0.369384765625,-0.035400390625,3.7862595419847325,1.648854961832061,-1.4045801526717556,3688,0,3,-6.585939817211971,3140.4584498946706,0.003942,False,,False,,,,,30
287.947,2.237973162000003,-0.91943359375,0.37548828125,-0.0361328125,3.6030534351145036,1.6793893129770991,-1.5877862595419847,3688,0,0,-6.585939817211971,3140.464480428366,0.0,False,,False,,,,,30
287.947,2.2399771750000355,-0.91943359375,0.37548828125,-0.0361328125,3.6030534351145036,1.6793893129770991,-1.5877862595419847,3688,0,0,-6.585939817211971,3140.464480428366,0.0,False,,False,,,,,30
287.952,2.2419781319999856,-0.9189453125,0.379638671875,-0.032470703125,3.8167938931297707,0.916030534351145,-1.4351145038167938,3687,0,1,-6.588411741040096,3140.469739118376,0.001314,False,,False,,,,,30
287.952,2.243979866000018,-0.9189453125,0.379638671875,-0.032470703125,3.8167938931297707,0.916030534351145,-1.4351145038167938,3687,0,1,-6.588411741040096,3140.469739118376,0.001314,False,,False,,,,,30
287.952,2.245978637999997,-0.9189453125,0.379638671875,-0.032470703125,3.8167938931297707,0.916030534351145,-1.4351145038167938,3687,0,1,-6.588411741040096,3140.469739118376,0.001314,False,,False,,,,,30
287.957,2.2479808540000477,-0.9189453125,0.38037109375,-0.033203125,3.9389312977099236,0.8244274809160305,-1.4961832061068703,3687,1,0,-6.588411741040096,3140.470694445479,0.0,False,,False,,,,,30
287.957,2.2499812559999555,-0.9189453125,0.38037109375,-0.033203125,3.9389312977099236,0.8244274809160305,-1.4961832061068703,3687,1,0,-6.588411741040096,3140.470694445479,0.0,False,,False,,,,,30
287.962,2.251983786999972,-0.918212890625,0.38134765625,-0.034912109375,3.7557251908396947,0.42748091603053434,-1.6793893129770991,3687,-4,-1,-6.588411741040096,3140.4698237407224,-0.001314,False,,False,,,,,30
287.962,2.253984077000041,-0.918212890625,0.38134765625,-0.034912109375,3.7557251908396947,0.42748091603053434,-1.6793893129770991,3687,-4,-1,-6.588411741040096,3140.4698237407224,-0.001314,False,,False,,,,,30
287.962,2.255985385000031,-0.918212890625,0.38134765625,-0.034912109375,3.7557251908396947,0.42748091603053434,-1.6793893129770991,3687,-4,-1,-6.588411741040096,3140.4698237407224,-0.001314,False,,False,,,,,30
287.967,2.2579869349999626,-0.918701171875,0.382568359375,-0.035400390625,3.9083969465648853,0.3969465648854962,-1.8015267175572518,3687,0,2,-6.588411741040096,3140.469227433427,0.002628,False,,False,,,,,30
287.967,2.2599879660000397,-0.918701171875,0.382568359375,-0.035400390625,3.9083969465648853,0.3969465648854962,-1.8015267175572518,3687,0,2,-6.588411741040096,3140.469227433427,0.002628,False,,False,,,,,30
287.972,2.262000219000015,-0.908447265625,0.388916015625,-0.033203125,4.305343511450381,0.48854961832061067,-1.9236641221374045,3688,1,0,-6.585939817211971,3140.470659989359,0.0,False,,False,,,,,30
287.972,2.2639907129999983,-0.908447265625,0.388916015625,-0.033203125,4.305343511450381,0.48854961832061067,-1.9236641221374045,3688,1,0,-6.585939817211971,3140.470659989359,0.0,False,,False,,,,,30
287.972,2.2659920400000146,-0.908447265625,0.388916015625,-0.033203125,4.305343511450381,0.48854961832061067,-1.9236641221374045,3688,1,0,-6.585939817211971,3140.470659989359,0.0,False,,False,,,,,30
287.97700000000003,2.2679938859999993,-0.911865234375,0.391845703125,-0.03125,4.580152671755725,0.183206106870229,-1.8625954198473282,3688,6,2,-6.585939817211971,3140.4755608233504,0.002628,False,,False,,,,,30
287.97700000000003,2.269994601999997,-0.911865234375,0.391845703125,-0.03125,4.580152671755725,0.183206106870229,-1.8625954198473282,3688,6,2,-6.585939817211971,3140.4755608233504,0.002628,False,,False,,,,,30
287.982,2.271996874000024,-0.907470703125,0.390380859375,-0.033935546875,4.977099236641221,0.061068702290076333,-1.7099236641221374,3687,0,2,-6.588411741040096,3140.479713230592,0.002628,False,,False,,,,,30
287.982,2.2739976819999583,-0.907470703125,0.390380859375,-0.033935546875,4.977099236641221,0.061068702290076333,-1.7099236641221374,3687,0,2,-6.588411741040096,3140.479713230592,0.002628,False,,False,,,,,30
287.982,2.2759988799999746,-0.907470703125,0.390380859375,-0.033935546875,4.977099236641221,0.061068702290076333,-1.7099236641221374,3687,0,2,-6.588411741040096,3140.479713230592,0.002628,False,,False,,,,,30
287.987,2.2780008560000624,-0.907470703125,0.387451171875,-0.03076171875,5.2824427480916025,-0.0916030534351145,-1.648854961832061,3686,-1,1,-6.590883664868221,3140.477807401533,0.001314,False,,False,,,,,30
287.987,2.28000157200006,-0.907470703125,0.387451171875,-0.03076171875,5.2824427480916025,-0.0916030534351145,-1.648854961832061,3686,-1,1,-6.590883664868221,3140.477807401533,0.001314,False,,False,,,,,30
287.992,2.2820039169999973,-0.90283203125,0.384765625,-0.03173828125,5.404580152671755,-0.6717557251908397,-1.7709923664122136,3687,-3,2,-6.588411741040096,3140.472647841724,0.002628,False,,False,,,,,30
287.992,2.2840046339999844,-0.90283203125,0.384765625,-0.03173828125,5.404580152671755,-0.6717557251908397,-1.7709923664122136,3687,-3,2,-6.588411741040096,3140.472647841724,0.002628,False,,False,,,,,30
287.992,2.2860055160000456,-0.90283203125,0.384765625,-0.03173828125,5.404580152671755,-0.6717557251908397,-1.7709923664122136,3687,-3,2,-6.588411741040096,3140.472647841724,0.002628,False,,False,,,,,30
287.997,2.2880072330000303,-0.90380859375,0.386474609375,-0.03125,5.312977099236641,-0.8244274809160305,-1.8015267175572518,3688,2,2,-6.585939817211971,3140.4720010800315,0.002628,False,,False,,,,,30
287.997,2.290009282000028,-0.90380859375,0.386474609375,-0.03125,5.312977099236641,-0.8244274809160305,-1.8015267175572518,3688,2,2,-6.585939817211971,3140.4720010800315,0.002628,False,,False,,,,,30
288.002,2.2920107759999837,-0.8994140625,0.38623046875,-0.031982421875,5.679389312977099,-1.1908396946564885,-1.7099236641221374,3687,0,2,-6.588411741040096,3140.475141719577,0.002628,False,,False,,,,,30
288.002,2.294011936000061,-0.8994140625,0.38623046875,-0.031982421875,5.679389312977099,-1.1908396946564885,-1.7099236641221374,3687,0,2,-6.588411741040096,3140.475141719577,0.002628,False,,False,,,,,30
288.002,2.2960128009999607,-0.8994140625,0.38623046875,-0.031982421875,5.679389312977099,-1.1908396946564885,-1.7099236641221374,3687,0,2,-6.588411741040096,3140.475141719577,0.002628,False,,False,,,,,30
288.007,2.2980147389999956,-0.906982421875,0.388427734375,-0.0302734375,5.984732824427481,-1.2213740458015268,-1.7709923664122136,3687,-2,2,-6.588411741040096,3140.476036091859,0.002628,False,,False,,,,,30
288.007,2.3000158629999987,-0.906982421875,0.388427734375,-0.0302734375,5.984732824427481,-1.2213740458015268,-1.7709923664122136,3687,-2,2,-6.588411741040096,3140.476036091859,0.002628,False,,False,,,,,30
288.012,2.302017967999973,-0.90087890625,0.3896484375,-0.033935546875,6.595419847328244,-1.6793893129770991,-1.9236641221374045,3687,0,2,-6.588411741040096,3140.4750369738767,0.002628,False,,False,,,,,30
288.012,2.304018665000058,-0.90087890625,0.3896484375,-0.033935546875,6.595419847328244,-1.6793893129770991,-1.9236641221374045,3687,0,2,-6.588411741040096,3140.4750369738767,0.002628,False,,False,,,,,30
288.012,2.3060198809999974,-0.90087890625,0.3896484375,-0.033935546875,6.595419847328244,-1.6793893129770991,-1.9236641221374045,3687,0,2,-6.588411741040096,3140.4750369738767,0.002628,False,,False,,,,,30
288.017,2.308021894000035,-0.900146484375,0.39111328125,-0.035888671875,6.8396946564885495,-1.6793893129770991,-1.8625954198473282,3687,0,3,-6.588411741040096,3140.474257638704,0.003942,False,,False,,,,,30
288.017,2.3100228140000354,-0.900146484375,0.39111328125,-0.035888671875,6.8396946564885495,-1.6793893129770991,-1.8625954198473282,3687,0,3,-6.588411741040096,3140.474257638704,0.003942,False,,False,,,,,30
288.022,2.3120247340000333,-0.90478515625,0.38818359375,-0.034912109375,7.0534351145038165,-1.984732824427481,-1.83206106870229,3687,5,1,-6.588411741040096,3140.4736735916813,0.001314,False,,False,,,,,30
288.022,2.314025486999981,-0.90478515625,0.38818359375,-0.034912109375,7.0534351145038165,-1.984732824427481,-1.83206106870229,3687,5,1,-6.588411741040096,3140.4736735916813,0.001314,False,,False,,,,,30
288.022,2.3160265550000076,-0.90478515625,0.38818359375,-0.034912109375,7.0534351145038165,-1.984732824427481,-1.83206106870229,3687,5,1,-6.588411741040096,3140.4736735916813,0.001314,False,,False,,,,,30
288.027,2.3180289929999844,-0.906494140625,0.3876953125,-0.034912109375,7.572519083969465,-2.1068702290076335,-2.0763358778625953,3687,-7,2,-6.588411741040096,3140.473261497244,0.002628,False,,False,,,,,30
288.027,2.320028857000011,-0.906494140625,0.3876953125,-0.034912109375,7.572519083969465,-2.1068702290076335,-2.0763358778625953,3687,-7,2,-6.588411741040096,3140.473261497244,0.002628,False,,False,,,,,30
288.032,2.322031221999964,-0.90673828125,0.3876953125,-0.037353515625,8.061068702290076,-2.2900763358778624,-2.045801526717557,3687,2,3,-6.588411741040096,3140.4729993282554,0.003942,False,,False,,,,,30
288.032,2.3240322709999646,-0.90673828125,0.3876953125,-0.037353515625,8.061068702290076,-2.2900763358778624,-2.045801526717557,3687,2,3,-6.588411741040096,3140.4729993282554,0.003942,False,,False,,,,,30
288.032,2.326033839000047,-0.90673828125,0.3876953125,-0.037353515625,8.061068702290076,-2.2900763358778624,-2.045801526717557,3687,2,3,-6.588411741040096,3140.4729993282554,0.003942,False,,False,,,,,30
288.037,2.328035815000021,-0.906494140625,0.385009765625,-0.037109375,8.305343511450381,-2.4122137404580153,-1.9541984732824427,3685,-9,3,-6.593355588696346,3140.4692854637383,0.003942,False,,False,,,,,30
288.037,2.3300365860000056,-0.906494140625,0.385009765625,-0.037109375,8.305343511450381,-2.4122137404580153,-1.9541984732824427,3685,-9,3,-6.593355588696346,3140.4692854637383,0.003942,False,,False,,,,,30
288.04200000000003,2.3320384690000537,-0.907958984375,0.38037109375,-0.034912109375,8.854961832061068,-2.4122137404580153,-1.984732824427481,3687,-5,2,-6.588411741040096,3140.462735704668,0.002628,False,,False,,,,,30
288.04200000000003,2.334039037000025,-0.907958984375,0.38037109375,-0.034912109375,8.854961832061068,-2.4122137404580153,-1.984732824427481,3687,-5,2,-6.588411741040096,3140.462735704668,0.002628,False,,False,,,,,30
288.04200000000003,2.3360404200000175,-0.907958984375,0.38037109375,-0.034912109375,8.854961832061068,-2.4122137404580153,-1.984732824427481,3687,-5,2,-6.588411741040096,3140.462735704668,0.002628,False,,False,,,,,30
288.047,2.338042320999989,-0.91162109375,0.38037109375,-0.0390625,8.977099236641221,-2.2900763358778624,-2.1068702290076335,3688,2,3,-6.585939817211971,3140.4628591919836,0.003942,False,,False,,,,,30
288.047,2.3400437039999815,-0.91162109375,0.38037109375,-0.0390625,8.977099236641221,-2.2900763358778624,-2.1068702290076335,3688,2,3,-6.585939817211971,3140.4628591919836,0.003942,False,,False,,,,,30
288.052,2.3420451609999873,-0.916748046875,0.376708984375,-0.037841796875,9.190839694656487,-2.4122137404580153,-1.8931297709923662,3687,0,3,-6.588411741040096,3140.4685676099302,0.003942,False,,False,,,,,30
288.052,2.3440459509999982,-0.916748046875,0.376708984375,-0.037841796875,9.190839694656487,-2.4122137404580153,-1.8931297709923662,3687,0,3,-6.588411741040096,3140.4685676099302,0.003942,False,,False,,,,,30
288.052,2.3460469819999616,-0.916748046875,0.376708984375,-0.037841796875,9.190839694656487,-2.4122137404580153,-1.8931297709923662,3687,0,3,-6.588411741040096,3140.4685676099302,0.003942,False,,False,,,,,30
288.057,2.348049123999999,-0.91845703125,0.378662109375,-0.0380859375,9.435114503816793,-2.4122137404580153,-1.984732824427481,3687,1,0,-6.588411741040096,3140.4717069164994,0.0,False,,False,,,,,30
288.057,2.350053451000008,-0.91845703125,0.378662109375,-0.0380859375,9.435114503816793,-2.4122137404580153,-1.984732824427481,3687,1,0,-6.588411741040096,3140.4717069164994,0.0,False,,False,,,,,30
288.062,2.352051815999971,-0.923583984375,0.371337890625,-0.037841796875,9.435114503816793,-2.2900763358778624,-1.9236641221374045,3688,4,0,-6.585939817211971,3140.4744404360554,0.0,False,,False,,,,,30
288.062,2.354052253999953,-0.923583984375,0.371337890625,-0.037841796875,9.435114503816793,-2.2900763358778624,-1.9236641221374045,3688,4,0,-6.585939817211971,3140.4744404360554,0.0,False,,False,,,,,30
288.062,2.3560531739999533,-0.923583984375,0.371337890625,-0.037841796875,9.435114503816793,-2.2900763358778624,-1.9236641221374045,3688,4,0,-6.585939817211971,3140.4744404360554,0.0,False,,False,,,,,30
288.067,2.358054927000012,-0.92236328125,0.373291015625,-0.037841796875,9.435114503816793,-2.595419847328244,-1.984732824427481,3687,2,2,-6.588411741040096,3140.478585142588,0.002628,False,,False,,,,,30
288.067,2.360055698999986,-0.92236328125,0.373291015625,-0.037841796875,9.435114503816793,-2.595419847328244,-1.984732824427481,3687,2,2,-6.588411741040096,3140.478585142588,0.002628,False,,False,,,,,30
288.072,2.362058488999992,-0.926513671875,0.37255859375,-0.037841796875,9.49618320610687,-2.1068702290076335,-1.9541984732824427,3686,-4,0,-6.590883664868221,3140.4784797132356,0.0,False,,False,,,,,30
288.072,2.3640591309999763,-0.926513671875,0.37255859375,-0.037841796875,9.49618320610687,-2.1068702290076335,-1.9541984732824427,3686,-4,0,-6.590883664868221,3140.4784797132356,0.0,False,,False,,,,,30
288.072,2.3660609030000614,-0.926513671875,0.37255859375,-0.037841796875,9.49618320610687,-2.1068702290076335,-1.9541984732824427,3686,-4,0,-6.590883664868221,3140.4784797132356,0.0,False,,False,,,,,30
288.077,2.368063285000062,-0.927734375,0.3662109375,-0.034423828125,9.435114503816793,-2.16793893129771,-1.8931297709923662,3688,5,1,-6.585939817211971,3140.4766081795974,0.001314,False,,False,,,,,30
288.077,2.370063705000007,-0.927734375,0.3662109375,-0.034423828125,9.435114503816793,-2.16793893129771,-1.8931297709923662,3688,5,1,-6.585939817211971,3140.4766081795974,0.001314,False,,False,,,,,30
288.082,2.3720660139999836,-0.92919921875,0.367919921875,-0.035400390625,9.374045801526718,-2.045801526717557,-1.83206106870229,3686,1,0,-6.590883664868221,3140.476866216586,0.0,False,,False,,,,,30
288.082,2.374066767000045,-0.92919921875,0.367919921875,-0.035400390625,9.374045801526718,-2.045801526717557,-1.83206106870229,3686,1,0,-6.590883664868221,3140.476866216586,0.0,False,,False,,,,,30
288.082,2.3760682610000003,-0.92919921875,0.367919921875,-0.035400390625,9.374045801526718,-2.045801526717557,-1.83206106870229,3686,1,0,-6.590883664868221,3140.476866216586,0.0,False,,False,,,,,30
288.087,2.378070235999985,-0.92626953125,0.3671875,-0.03466796875,9.16030534351145,-2.16793893129771,-1.7404580152671756,3688,2,1,-6.585939817211971,3140.4771128487505,0.001314,False,,False,,,,,30
288.087,2.380071249000025,-0.92626953125,0.3671875,-0.03466796875,9.16030534351145,-2.16793893129771,-1.7404580152671756,3688,2,1,-6.585939817211971,3140.4771128487505,0.001314,False,,False,,,,,30
288.092,2.3820744649999597,-0.932861328125,0.36474609375,-0.033935546875,8.763358778625953,-2.2900763358778624,-1.8931297709923662,3687,0,0,-6.588411741040096,3140.479136864279,0.0,False,,False,,,,,30
288.092,2.3840740890000234,-0.932861328125,0.36474609375,-0.033935546875,8.763358778625953,-2.2900763358778624,-1.8931297709923662,3687,0,0,-6.588411741040096,3140.479136864279,0.0,False,,False,,,,,30
288.092,2.3860755270000027,-0.932861328125,0.36474609375,-0.033935546875,8.763358778625953,-2.2900763358778624,-1.8931297709923662,3687,0,0,-6.588411741040096,3140.479136864279,0.0,False,,False,,,,,30
288.097,2.388077317000011,-0.92822265625,0.359619140625,-0.03125,8.51908396946565,-2.4427480916030535,-1.7709923664122136,3687,6,3,-6.588411741040096,3140.480829047023,0.003942,False,,False,,,,,30
288.097,2.3900780699999586,-0.92822265625,0.359619140625,-0.03125,8.51908396946565,-2.4427480916030535,-1.7709923664122136,3687,6,3,-6.588411741040096,3140.480829047023,0.003942,False,,False,,,,,30
288.10200000000003,2.3920809530000042,-0.929443359375,0.358154296875,-0.0341796875,8.396946564885496,-2.4732824427480917,-1.6793893129770991,3686,-2,3,-6.590883664868221,3140.4786379027955,0.003942,False,,False,,,,,30
288.10200000000003,2.394082131999994,-0.929443359375,0.358154296875,-0.0341796875,8.396946564885496,-2.4732824427480917,-1.6793893129770991,3686,-2,3,-6.590883664868221,3140.4786379027955,0.003942,False,,False,,,,,30
288.10200000000003,2.396083384999997,-0.929443359375,0.358154296875,-0.0341796875,8.396946564885496,-2.4732824427480917,-1.6793893129770991,3686,-2,3,-6.590883664868221,3140.4786379027955,0.003942,False,,False,,,,,30
288.107,2.398083971999995,-0.926025390625,0.359375,-0.033203125,8.274809160305344,-2.564885496183206,-1.8015267175572518,3688,2,3,-6.585939817211971,3140.4768084591947,0.003942,False,,False,,,,,30
288.107,2.4000848550000455,-0.926025390625,0.359375,-0.033203125,8.274809160305344,-2.564885496183206,-1.8015267175572518,3688,2,3,-6.585939817211971,3140.4768084591947,0.003942,False,,False,,,,,30
288.112,2.4020875710000382,-0.927734375,0.35595703125,-0.0361328125,8.0,-2.564885496183206,-1.5572519083969465,3686,0,2,-6.590883664868221,3140.4770988316654,0.002628,False,,False,,,,,30
288.112,2.404087935000007,-0.927734375,0.35595703125,-0.0361328125,8.0,-2.564885496183206,-1.5572519083969465,3686,0,2,-6.590883664868221,3140.4770988316654,0.002628,False,,False,,,,,30
288.112,2.4060892249999597,-0.927734375,0.35595703125,-0.0361328125,8.0,-2.564885496183206,-1.5572519083969465,3686,0,2,-6.590883664868221,3140.4770988316654,0.002628,False,,False,,,,,30
288.117,2.4080910339999946,-0.925537109375,0.350830078125,-0.034912109375,7.786259541984733,-2.748091603053435,-1.4961832061068703,3687,-4,2,-6.588411741040096,3140.4755786605047,0.002628,False,,False,,,,,30
288.117,2.4100917319999553,-0.925537109375,0.350830078125,-0.034912109375,7.786259541984733,-2.748091603053435,-1.4961832061068703,3687,-4,2,-6.588411741040096,3140.4755786605047,0.002628,False,,False,,,,,30
288.122,2.4120935769999505,-0.923828125,0.352783203125,-0.034423828125,7.603053435114504,-2.778625954198473,-1.4961832061068703,3687,1,3,-6.588411741040096,3140.474355261907,0.003942,False,,False,,,,,30
288.122,2.414094460000001,-0.923828125,0.352783203125,-0.034423828125,7.603053435114504,-2.778625954198473,-1.4961832061068703,3687,1,3,-6.588411741040096,3140.474355261907,0.003942,False,,False,,,,,30
288.122,2.4160961390000466,-0.923828125,0.352783203125,-0.034423828125,7.603053435114504,-2.778625954198473,-1.4961832061068703,3687,1,3,-6.588411741040096,3140.474355261907,0.003942,False,,False,,,,,30
288.127,2.4180980040000577,-0.927978515625,0.3505859375,-0.0361328125,7.480916030534351,-2.717557251908397,-1.465648854961832,3686,-3,2,-6.590883664868221,3140.4733980388933,0.002628,False,,False,,,,,30
288.127,2.4200991090000343,-0.927978515625,0.3505859375,-0.0361328125,7.480916030534351,-2.717557251908397,-1.465648854961832,3686,-3,2,-6.590883664868221,3140.4733980388933,0.002628,False,,False,,,,,30
288.132,2.422103436000043,-0.927978515625,0.350341796875,-0.038330078125,7.145038167938931,-2.8091603053435112,-1.4045801526717556,3686,-5,4,-6.590883664868221,3140.4690965118875,0.005256,False,,False,,,,,30
288.132,2.424101188999998,-0.927978515625,0.350341796875,-0.038330078125,7.145038167938931,-2.8091603053435112,-1.4045801526717556,3686,-5,4,-6.590883664868221,3140.4690965118875,0.005256,False,,False,,,,,30
288.132,2.4261029609999696,-0.927978515625,0.350341796875,-0.038330078125,7.145038167938931,-2.8091603053435112,-1.4045801526717556,3686,-5,4,-6.590883664868221,3140.4690965118875,0.005256,False,,False,,,,,30
288.137,2.428105510000023,-0.927490234375,0.34912109375,-0.037841796875,6.961832061068702,-2.6259541984732824,-1.1908396946564885,3686,-5,5,-6.590883664868221,3140.4638480141543,0.0065699999999999995,False,,False,,,,,30
288.137,2.430106226000021,-0.927490234375,0.34912109375,-0.037841796875,6.961832061068702,-2.6259541984732824,-1.1908396946564885,3686,-5,5,-6.590883664868221,3140.4638480141543,0.0065699999999999995,False,,False,,,,,30
288.142,2.43210775700004,-0.934814453125,0.347412109375,-0.04150390625,6.8396946564885495,-2.381679389312977,-1.2519083969465647,3687,2,5,-6.588411741040096,3140.4614637717864,0.0065699999999999995,False,,False,,,,,30
288.142,2.4341084550000005,-0.934814453125,0.347412109375,-0.04150390625,6.8396946564885495,-2.381679389312977,-1.2519083969465647,3687,2,5,-6.588411741040096,3140.4614637717864,0.0065699999999999995,False,,False,,,,,30
288.142,2.436109559999977,-0.934814453125,0.347412109375,-0.04150390625,6.8396946564885495,-2.381679389312977,-1.2519083969465647,3687,2,5,-6.588411741040096,3140.4614637717864,0.0065699999999999995,False,,False,,,,,30
288.147,2.4381113499999856,-0.935546875,0.345703125,-0.046630859375,6.625954198473282,-2.351145038167939,-1.2519083969465647,3687,-3,4,-6.588411741040096,3140.463302475488,0.005256,False,,False,,,,,30
288.147,2.4401127139999517,-0.935546875,0.345703125,-0.046630859375,6.625954198473282,-2.351145038167939,-1.2519083969465647,3687,-3,4,-6.588411741040096,3140.463302475488,0.005256,False,,False,,,,,30
288.152,2.4421154310000475,-0.936767578125,0.35009765625,-0.043701171875,6.290076335877862,-1.7404580152671756,-1.2213740458015268,3686,-4,1,-6.590883664868221,3140.4650689070227,0.001314,False,,False,,,,,30
288.152,2.4441158869999526,-0.936767578125,0.35009765625,-0.043701171875,6.290076335877862,-1.7404580152671756,-1.2213740458015268,3686,-4,1,-6.590883664868221,3140.4650689070227,0.001314,False,,False,,,,,30
288.152,2.4461176959999875,-0.936767578125,0.35009765625,-0.043701171875,6.290076335877862,-1.7404580152671756,-1.2213740458015268,3686,-4,1,-6.590883664868221,3140.4650689070227,0.001314,False,,False,,,,,30
288.157,2.4481191160000435,-0.93701171875,0.346435546875,-0.046875,6.229007633587786,-1.4351145038167938,-1.3435114503816794,3687,-2,0,-6.588411741040096,3140.464958739649,0.0,False,,False,,,,,30
288.157,2.4501200539999672,-0.93701171875,0.346435546875,-0.046875,6.229007633587786,-1.4351145038167938,-1.3435114503816794,3687,-2,0,-6.588411741040096,3140.464958739649,0.0,False,,False,,,,,30
288.162,2.4521222150000312,-0.934814453125,0.34765625,-0.0478515625,5.9541984732824424,-1.129770992366412,-1.3129770992366412,3688,3,1,-6.585939817211971,3140.4686506265675,0.001314,False,,False,,,,,30
288.162,2.454122931000029,-0.934814453125,0.34765625,-0.0478515625,5.9541984732824424,-1.129770992366412,-1.3129770992366412,3688,3,1,-6.585939817211971,3140.4686506265675,0.001314,False,,False,,,,,30
288.162,2.456124573000011,-0.934814453125,0.34765625,-0.0478515625,5.9541984732824424,-1.129770992366412,-1.3129770992366412,3688,3,1,-6.585939817211971,3140.4686506265675,0.001314,False,,False,,,,,30
288.16700000000003,2.458126456000059,-0.936279296875,0.346923828125,-0.04296875,5.801526717557252,-0.732824427480916,-1.2213740458015268,3687,4,2,-6.588411741040096,3140.475472040094,0.002628,False,,False,,,,,30
288.16700000000003,2.460127228000033,-0.936279296875,0.346923828125,-0.04296875,5.801526717557252,-0.732824427480916,-1.2213740458015268,3687,4,2,-6.588411741040096,3140.475472040094,0.002628,False,,False,,,,,30
288.172,2.462128796000002,-0.93798828125,0.3486328125,-0.040771484375,5.221374045801526,-0.6412213740458015,-1.129770992366412,3686,-6,2,-6.590883664868221,3140.4776525991265,0.002628,False,,False,,,,,30
288.172,2.464129660000026,-0.93798828125,0.3486328125,-0.040771484375,5.221374045801526,-0.6412213740458015,-1.129770992366412,3686,-6,2,-6.590883664868221,3140.4776525991265,0.002628,False,,False,,,,,30
288.172,2.4661313389999577,-0.93798828125,0.3486328125,-0.040771484375,5.221374045801526,-0.6412213740458015,-1.129770992366412,3686,-6,2,-6.590883664868221,3140.4776525991265,0.002628,False,,False,,,,,30
288.177,2.4681325180000613,-0.9365234375,0.346435546875,-0.0400390625,5.190839694656488,-0.3969465648854962,-1.0076335877862594,3688,2,4,-6.585939817211971,3140.4777068350654,0.005256,False,,False,,,,,30
288.177,2.470133345000022,-0.9365234375,0.346435546875,-0.0400390625,5.190839694656488,-0.3969465648854962,-1.0076335877862594,3688,2,4,-6.585939817211971,3140.4777068350654,0.005256,False,,False,,,,,30
288.182,2.472135339000033,-0.935791015625,0.34326171875,-0.03955078125,4.916030534351145,-0.3053435114503817,-1.0076335877862594,3687,4,3,-6.588411741040096,3140.481351679254,0.003942,False,,False,,,,,30
288.182,2.474137074000055,-0.935791015625,0.34326171875,-0.03955078125,4.916030534351145,-0.3053435114503817,-1.0076335877862594,3687,4,3,-6.588411741040096,3140.481351679254,0.003942,False,,False,,,,,30
288.182,2.476137734999952,-0.935791015625,0.34326171875,-0.03955078125,4.916030534351145,-0.3053435114503817,-1.0076335877862594,3687,4,3,-6.588411741040096,3140.481351679254,0.003942,False,,False,,,,,30
288.187,2.4781400059999896,-0.936767578125,0.349853515625,-0.038818359375,4.6106870229007635,-0.33587786259541985,-0.9465648854961831,3686,-9,0,-6.590883664868221,3140.482578200427,0.0,False,,False,,,,,30
288.187,2.480140537000011,-0.936767578125,0.349853515625,-0.038818359375,4.6106870229007635,-0.33587786259541985,-0.9465648854961831,3686,-9,0,-6.590883664868221,3140.482578200427,0.0,False,,False,,,,,30
288.192,2.482141605000038,-0.93408203125,0.345458984375,-0.03857421875,4.0,-0.3969465648854962,-0.8549618320610687,3686,-3,0,-6.590883664868221,3140.478181369333,0.0,False,,False,,,,,30
288.192,2.484142894999991,-0.93408203125,0.345458984375,-0.03857421875,4.0,-0.3969465648854962,-0.8549618320610687,3686,-3,0,-6.590883664868221,3140.478181369333,0.0,False,,False,,,,,30
288.192,2.4861438890000045,-0.93408203125,0.345458984375,-0.03857421875,4.0,-0.3969465648854962,-0.8549618320610687,3686,-3,0,-6.590883664868221,3140.478181369333,0.0,False,,False,,,,,30
288.197,2.488145105000058,-0.9365234375,0.34228515625,-0.03857421875,3.7862595419847325,-0.183206106870229,-0.7938931297709924,3686,-3,4,-6.590883664868221,3140.472721474925,0.005256,False,,False,,,,,30
288.197,2.4901459139999815,-0.9365234375,0.34228515625,-0.03857421875,3.7862595419847325,-0.183206106870229,-0.7938931297709924,3686,-3,4,-6.590883664868221,3140.472721474925,0.005256,False,,False,,,,,30
288.202,2.4921480189999556,-0.9306640625,0.345947265625,-0.04248046875,3.5114503816793894,-0.12213740458015267,-0.7022900763358778,3686,-6,0,-6.590883664868221,3140.4682412035777,0.0,False,,False,,,,,30
288.202,2.494148643000017,-0.9306640625,0.345947265625,-0.04248046875,3.5114503816793894,-0.12213740458015267,-0.7022900763358778,3686,-6,0,-6.590883664868221,3140.4682412035777,0.0,False,,False,,,,,30
288.202,2.496150359000012,-0.9306640625,0.345947265625,-0.04248046875,3.5114503816793894,-0.12213740458015267,-0.7022900763358778,3686,-6,0,-6.590883664868221,3140.4682412035777,0.0,False,,False,,,,,30
288.207,2.4981520569999702,-0.931640625,0.350341796875,-0.042236328125,3.2061068702290076,-0.030534351145038167,-0.42748091603053434,3686,-7,0,-6.590883664868221,3140.4646459591454,0.0,False,,False,,,,,30
288.207,2.5001533839999865,-0.931640625,0.350341796875,-0.042236328125,3.2061068702290076,-0.030534351145038167,-0.42748091603053434,3686,-7,0,-6.590883664868221,3140.4646459591454,0.0,False,,False,,,,,30
288.212,2.502155562999974,-0.928955078125,0.350830078125,-0.042236328125,2.9923664122137406,-0.21374045801526717,-0.2748091603053435,3686,-7,0,-6.590883664868221,3140.4618437263284,0.0,False,,False,,,,,30
288.212,2.504156260000059,-0.928955078125,0.350830078125,-0.042236328125,2.9923664122137406,-0.21374045801526717,-0.2748091603053435,3686,-7,0,-6.590883664868221,3140.4618437263284,0.0,False,,False,,,,,30
288.212,2.50615793999998,-0.928955078125,0.350830078125,-0.042236328125,2.9923664122137406,-0.21374045801526717,-0.2748091603053435,3686,-7,0,-6.590883664868221,3140.4618437263284,0.0,False,,False,,,,,30
288.217,2.5081597299999885,-0.929931640625,0.3515625,-0.042724609375,2.8396946564885495,-0.12213740458015267,-0.183206106870229,3687,-6,1,-6.588411741040096,3140.461536487631,0.001314,False,,False,,,,,30
288.217,2.510160649999989,-0.929931640625,0.3515625,-0.042724609375,2.8396946564885495,-0.12213740458015267,-0.183206106870229,3687,-6,1,-6.588411741040096,3140.461536487631,0.001314,False,,False,,,,,30
288.222,2.5121622359999947,-0.928955078125,0.3515625,-0.044189453125,2.564885496183206,-0.12213740458015267,-0.24427480916030533,3687,0,1,-6.588411741040096,3140.465112967281,0.001314,False,,False,,,,,30
288.222,2.5141634149999845,-0.928955078125,0.3515625,-0.044189453125,2.564885496183206,-0.12213740458015267,-0.24427480916030533,3687,0,1,-6.588411741040096,3140.465112967281,0.001314,False,,False,,,,,30
288.222,2.516164390999961,-0.928955078125,0.3515625,-0.044189453125,2.564885496183206,-0.12213740458015267,-0.24427480916030533,3687,0,1,-6.588411741040096,3140.465112967281,0.001314,False,,False,,,,,30
288.22700000000003,2.5181659029999537,-0.928466796875,0.352783203125,-0.042724609375,2.6564885496183206,-0.030534351145038167,-0.0916030534351145,3687,0,2,-6.588411741040096,3140.470098508893,0.002628,False,,False,,,,,30
288.22700000000003,2.520167008000044,-0.928466796875,0.352783203125,-0.042724609375,2.6564885496183206,-0.030534351145038167,-0.0916030534351145,3687,0,2,-6.588411741040096,3140.470098508893,0.002628,False,,False,,,,,30
288.232,2.5221685579999757,-0.927978515625,0.355712890625,-0.04541015625,2.351145038167939,0.24427480916030533,-0.030534351145038167,3687,-1,1,-6.588411741040096,3140.4744009628525,0.001314,False,,False,,,,,30
288.232,2.5241693289999603,-0.927978515625,0.355712890625,-0.04541015625,2.351145038167939,0.24427480916030533,-0.030534351145038167,3687,-1,1,-6.588411741040096,3140.4744009628525,0.001314,False,,False,,,,,30
288.232,2.5261704160000136,-0.927978515625,0.355712890625,-0.04541015625,2.351145038167939,0.24427480916030533,-0.030534351145038167,3687,-1,1,-6.588411741040096,3140.4744009628525,0.001314,False,,False,,,,,30
288.237,2.5281727990000036,-0.9326171875,0.3544921875,-0.04443359375,2.4427480916030535,0.0,-0.21374045801526717,3688,5,2,-6.585939817211971,3140.479859724188,0.002628,False,,False,,,,,30
288.237,2.530173385000012,-0.9326171875,0.3544921875,-0.04443359375,2.4427480916030535,0.0,-0.21374045801526717,3688,5,2,-6.585939817211971,3140.479859724188,0.002628,False,,False,,,,,30
288.242,2.532175842000015,-0.927490234375,0.357666015625,-0.045166015625,2.3206106870229006,0.21374045801526717,-0.061068702290076333,3686,0,2,-6.590883664868221,3140.484416941224,0.002628,False,,False,,,,,30
288.242,2.5341765209999494,-0.927490234375,0.357666015625,-0.045166015625,2.3206106870229006,0.21374045801526717,-0.061068702290076333,3686,0,2,-6.590883664868221,3140.484416941224,0.002628,False,,False,,,,,30
288.242,2.536178089000032,-0.927490234375,0.357666015625,-0.045166015625,2.3206106870229006,0.21374045801526717,-0.061068702290076333,3686,0,2,-6.590883664868221,3140.484416941224,0.002628,False,,False,,,,,30
288.247,2.5381799350000165,-0.927001953125,0.355712890625,-0.045654296875,2.259541984732824,0.33587786259541985,-0.21374045801526717,3687,0,2,-6.588411741040096,3140.484572374427,0.002628,False,,False,,,,,30
288.247,2.5401814100000593,-0.927001953125,0.355712890625,-0.045654296875,2.259541984732824,0.33587786259541985,-0.21374045801526717,3687,0,2,-6.588411741040096,3140.484572374427,0.002628,False,,False,,,,,30
288.252,2.5421831820000307,-0.927734375,0.3544921875,-0.04443359375,2.229007633587786,0.183206106870229,-0.21374045801526717,3687,2,0,-6.588411741040096,3140.4846214715867,0.0,False,,False,,,,,30
288.252,2.544183750000002,-0.927734375,0.3544921875,-0.04443359375,2.229007633587786,0.183206106870229,-0.21374045801526717,3687,2,0,-6.588411741040096,3140.4846214715867,0.0,False,,False,,,,,30
288.252,2.5461847990000024,-0.927734375,0.3544921875,-0.04443359375,2.229007633587786,0.183206106870229,-0.21374045801526717,3687,2,0,-6.588411741040096,3140.4846214715867,0.0,False,,False,,,,,30
288.257,2.548186644999987,-0.928955078125,0.357177734375,-0.043212890625,2.1374045801526718,0.15267175572519084,-0.3053435114503817,3686,-6,0,-6.590883664868221,3140.4845808349055,0.0,False,,False,,,,,30
288.257,2.5501882500000193,-0.928955078125,0.357177734375,-0.043212890625,2.1374045801526718,0.15267175572519084,-0.3053435114503817,3686,-6,0,-6.590883664868221,3140.4845808349055,0.0,False,,False,,,,,30
288.262,2.5521906330000093,-0.931884765625,0.354248046875,-0.04052734375,2.16793893129771,-0.061068702290076333,-0.183206106870229,3687,-4,4,-6.588411741040096,3140.482675159225,0.005256,False,,False,,,,,30
288.262,2.554191793999962,-0.931884765625,0.354248046875,-0.04052734375,2.16793893129771,-0.061068702290076333,-0.183206106870229,3687,-4,4,-6.588411741040096,3140.482675159225,0.005256,False,,False,,,,,30
288.262,2.5561940649999997,-0.931884765625,0.354248046875,-0.04052734375,2.16793893129771,-0.061068702290076333,-0.183206106870229,3687,-4,4,-6.588411741040096,3140.482675159225,0.005256,False,,False,,,,,30
288.267,2.558196114999987,-0.9326171875,0.353271484375,-0.0400390625,2.015267175572519,-0.183206106870229,-0.24427480916030533,3687,1,3,-6.588411741040096,3140.482816722451,0.003942,False,,False,,,,,30
288.267,2.560194849000027,-0.9326171875,0.353271484375,-0.0400390625,2.015267175572519,-0.183206106870229,-0.24427480916030533,3687,1,3,-6.588411741040096,3140.482816722451,0.003942,False,,False,,,,,30
288.272,2.5621970470000406,-0.931884765625,0.352294921875,-0.04248046875,1.7709923664122136,-0.030534351145038167,-0.3053435114503817,3687,-3,-2,-6.588411741040096,3140.4846701457363,-0.002628,False,,False,,,,,30
288.272,2.5641983189999564,-0.931884765625,0.352294921875,-0.04248046875,1.7709923664122136,-0.030534351145038167,-0.3053435114503817,3687,-3,-2,-6.588411741040096,3140.4846701457363,-0.002628,False,,False,,,,,30
288.272,2.566199830999949,-0.931884765625,0.352294921875,-0.04248046875,1.7709923664122136,-0.030534351145038167,-0.3053435114503817,3687,-3,-2,-6.588411741040096,3140.4846701457363,-0.002628,False,,False,,,,,30
288.277,2.5682016949999706,-0.9306640625,0.352294921875,-0.0400390625,1.5572519083969465,-0.21374045801526717,-0.183206106870229,3688,-1,-1,-6.585939817211971,3140.4879298568176,-0.001314,False,,False,,,,,30
288.277,2.570320985999956,-0.9306640625,0.352294921875,-0.0400390625,1.5572519083969465,-0.21374045801526717,-0.183206106870229,3688,-1,-1,-6.585939817211971,3140.4879298568176,-0.001314,False,,False,,,,,30
288.282,2.5723251099999516,-0.9287109375,0.348388671875,-0.041015625,1.4351145038167938,-0.12213740458015267,-0.061068702290076333,3687,0,1,-6.588411741040096,3140.4923196636973,0.001314,False,,False,,,,,30
288.282,2.5743252329999677,-0.9287109375,0.348388671875,-0.041015625,1.4351145038167938,-0.12213740458015267,-0.061068702290076333,3687,0,1,-6.588411741040096,3140.4923196636973,0.001314,False,,False,,,,,30
288.282,2.57632413500005,-0.9287109375,0.348388671875,-0.041015625,1.4351145038167938,-0.12213740458015267,-0.061068702290076333,3687,0,1,-6.588411741040096,3140.4923196636973,0.001314,False,,False,,,,,30
288.287,2.578325962000008,-0.93212890625,0.347900390625,-0.04296875,1.4045801526717556,-0.12213740458015267,0.15267175572519084,3686,-2,3,-6.590883664868221,3140.492220459613,0.003942,False,,False,,,,,30
288.287,2.5803268079999953,-0.93212890625,0.347900390625,-0.04296875,1.4045801526717556,-0.12213740458015267,0.15267175572519084,3686,-2,3,-6.590883664868221,3140.492220459613,0.003942,False,,False,,,,,30
288.29200000000003,2.5823288020000064,-0.9267578125,0.34814453125,-0.04345703125,0.9770992366412213,-0.061068702290076333,0.030534351145038167,3687,-1,1,-6.588411741040096,3140.488364574929,0.001314,False,,False,,,,,30
288.29200000000003,2.5843301470000597,-0.9267578125,0.34814453125,-0.04345703125,0.9770992366412213,-0.061068702290076333,0.030534351145038167,3687,-1,1,-6.588411741040096,3140.488364574929,0.001314,False,,False,,,,,30
288.29200000000003,2.5863316039999518,-0.9267578125,0.34814453125,-0.04345703125,0.9770992366412213,-0.061068702290076333,0.030534351145038167,3687,-1,1,-6.588411741040096,3140.488364574929,0.001314,False,,False,,,,,30
288.297,2.588334635000024,-0.92724609375,0.345703125,-0.0419921875,0.7938931297709924,0.061068702290076333,0.0916030534351145,3687,-1,5,-6.588411741040096,3140.4867910376947,0.0065699999999999995,False,,False,,,,,30
288.297,2.590333962000045,-0.92724609375,0.345703125,-0.0419921875,0.7938931297709924,0.061068702290076333,0.0916030534351145,3687,-1,5,-6.588411741040096,3140.4867910376947,0.0065699999999999995,False,,False,,,,,30
288.302,2.5923355490000404,-0.92529296875,0.348388671875,-0.041748046875,0.4580152671755725,0.061068702290076333,0.21374045801526717,3688,-3,1,-6.585939817211971,3140.4889415395664,0.001314,False,,False,,,,,30
288.302,2.594336543000054,-0.92529296875,0.348388671875,-0.041748046875,0.4580152671755725,0.061068702290076333,0.21374045801526717,3688,-3,1,-6.585939817211971,3140.4889415395664,0.001314,False,,False,,,,,30
288.302,2.59633777800002,-0.92529296875,0.348388671875,-0.041748046875,0.4580152671755725,0.061068702290076333,0.21374045801526717,3688,-3,1,-6.585939817211971,3140.4889415395664,0.001314,False,,False,,,,,30
288.307,2.598339808999981,-0.92724609375,0.34716796875,-0.042724609375,0.2748091603053435,0.2748091603053435,0.3969465648854962,3687,6,0,-6.588411741040096,3140.4923880808774,0.0,False,,False,,,,,30
288.307,2.6003405430000157,-0.92724609375,0.34716796875,-0.042724609375,0.2748091603053435,0.2748091603053435,0.3969465648854962,3687,6,0,-6.588411741040096,3140.4923880808774,0.0,False,,False,,,,,30
288.312,2.6023426850000533,-0.92724609375,0.3505859375,-0.04443359375,0.0916030534351145,0.4580152671755725,0.366412213740458,3687,-2,0,-6.588411741040096,3140.4932887051928,0.0,False,,False,,,,,30
288.312,2.60434379000003,-0.92724609375,0.3505859375,-0.04443359375,0.0916030534351145,0.4580152671755725,0.366412213740458,3687,-2,0,-6.588411741040096,3140.4932887051928,0.0,False,,False,,,,,30
288.312,2.606345043000033,-0.92724609375,0.3505859375,-0.04443359375,0.0916030534351145,0.4580152671755725,0.366412213740458,3687,-2,0,-6.588411741040096,3140.4932887051928,0.0,False,,False,,,,,30
288.317,2.608346259999962,-0.927490234375,0.349609375,-0.044189453125,-0.12213740458015267,0.5801526717557252,0.42748091603053434,3686,0,3,-6.590883664868221,3140.4902543832486,0.003942,False,,False,,,,,30
288.317,2.61034693900001,-0.927490234375,0.349609375,-0.044189453125,-0.12213740458015267,0.5801526717557252,0.42748091603053434,3686,0,3,-6.590883664868221,3140.4902543832486,0.003942,False,,False,,,,,30
288.322,2.612348859000008,-0.92626953125,0.35302734375,-0.04150390625,-0.21374045801526717,0.549618320610687,0.42748091603053434,3687,-1,1,-6.588411741040096,3140.4857602580546,0.001314,False,,False,,,,,30
288.322,2.6143498710000586,-0.92626953125,0.35302734375,-0.04150390625,-0.21374045801526717,0.549618320610687,0.42748091603053434,3687,-1,1,-6.588411741040096,3140.4857602580546,0.001314,False,,False,,,,,30
288.322,2.6163515130000405,-0.92626953125,0.35302734375,-0.04150390625,-0.21374045801526717,0.549618320610687,0.42748091603053434,3687,-1,1,-6.588411741040096,3140.4857602580546,0.001314,False,,False,,,,,30
288.327,2.6183532290000358,-0.928955078125,0.349609375,-0.043701171875,-0.15267175572519084,0.8854961832061068,0.42748091603053434,3687,1,2,-6.588411741040096,3140.4836901258604,0.002628,False,,False,,,,,30
288.332,2.6220351220000566,-0.92919921875,0.3525390625,-0.042236328125,-0.6412213740458015,1.1603053435114503,0.42748091603053434,3687,5,1,-6.588411741040096,3140.4836793055665,0.001314,False,,False,,,,,30
288.332,2.6240414129999863,-0.92919921875,0.3525390625,-0.042236328125,-0.6412213740458015,1.1603053435114503,0.42748091603053434,3687,5,1,-6.588411741040096,3140.4836793055665,0.001314,False,,False,,,,,30
288.332,2.626192610999965,-0.92919921875,0.3525390625,-0.042236328125,-0.6412213740458015,1.1603053435114503,0.42748091603053434,3687,5,1,-6.588411741040096,3140.4836793055665,0.001314,False,,False,,,,,30
288.337,2.628200086999982,-0.92138671875,0.35302734375,-0.041259765625,-1.099236641221374,1.4045801526717556,0.21374045801526717,3688,7,3,-6.585939817211971,3140.48539266016,0.003942,False,,False,,,,,30
288.337,2.63019676600004,-0.92138671875,0.35302734375,-0.041259765625,-1.099236641221374,1.4045801526717556,0.21374045801526717,3688,7,3,-6.585939817211971,3140.48539266016,0.003942,False,,False,,,,,30
288.342,2.632200815000033,-0.927734375,0.359130859375,-0.0419921875,-1.0076335877862594,1.5877862595419847,0.12213740458015267,3688,0,2,-6.585939817211971,3140.4903151456015,0.002628,False,,False,,,,,30
288.342,2.634207253999989,-0.927734375,0.359130859375,-0.0419921875,-1.0076335877862594,1.5877862595419847,0.12213740458015267,3688,0,2,-6.585939817211971,3140.4903151456015,0.002628,False,,False,,,,,30
288.342,2.63620547000005,-0.927734375,0.359130859375,-0.0419921875,-1.0076335877862594,1.5877862595419847,0.12213740458015267,3688,0,2,-6.585939817211971,3140.4903151456015,0.002628,False,,False,,,,,30
288.347,2.6382074450000346,-0.92578125,0.3583984375,-0.04296875,-0.6412213740458015,1.3740458015267174,0.21374045801526717,3686,-2,1,-6.590883664868221,3140.4924814333062,0.001314,False,,False,,,,,30
288.347,2.6402066800000057,-0.92578125,0.3583984375,-0.04296875,-0.6412213740458015,1.3740458015267174,0.21374045801526717,3686,-2,1,-6.590883664868221,3140.4924814333062,0.001314,False,,False,,,,,30
288.35200000000003,2.6422086369999533,-0.928955078125,0.360107421875,-0.0380859375,-0.8549618320610687,1.3129770992366412,0.0,3687,0,1,-6.588411741040096,3140.488727891959,0.001314,False,,False,,,,,30
288.35200000000003,2.644209167999975,-0.928955078125,0.360107421875,-0.0380859375,-0.8549618320610687,1.3129770992366412,0.0,3687,0,1,-6.588411741040096,3140.488727891959,0.001314,False,,False,,,,,30
288.35200000000003,2.6462105870000414,-0.928955078125,0.360107421875,-0.0380859375,-0.8549618320610687,1.3129770992366412,0.0,3687,0,1,-6.588411741040096,3140.488727891959,0.001314,False,,False,,,,,30
288.357,2.648213951999992,-0.930419921875,0.35791015625,-0.038818359375,-1.0076335877862594,1.3129770992366412,-0.030534351145038167,3687,3,0,-6.588411741040096,3140.4854442672477,0.0,False,,False,,,,,30
288.357,2.6502137420000054,-0.930419921875,0.35791015625,-0.038818359375,-1.0076335877862594,1.3129770992366412,-0.030534351145038167,3687,3,0,-6.588411741040096,3140.4854442672477,0.0,False,,False,,,,,30
288.362,2.6522176250000484,-0.926513671875,0.35888671875,-0.04052734375,-1.3740458015267174,0.9770992366412213,-0.061068702290076333,3687,-6,2,-6.588411741040096,3140.4843921213883,0.002628,False,,False,,,,,30
288.362,2.654220099999975,-0.926513671875,0.35888671875,-0.04052734375,-1.3740458015267174,0.9770992366412213,-0.061068702290076333,3687,-6,2,-6.588411741040096,3140.4843921213883,0.002628,False,,False,,,,,30
288.362,2.6562187980000544,-0.926513671875,0.35888671875,-0.04052734375,-1.3740458015267174,0.9770992366412213,-0.061068702290076333,3687,-6,2,-6.588411741040096,3140.4843921213883,0.002628,False,,False,,,,,30
288.367,2.658221643000047,-0.927001953125,0.358154296875,-0.0380859375,-1.282442748091603,1.129770992366412,-0.030534351145038167,3686,0,8,-6.590883664868221,3140.4816423626235,0.010512,False,,False,,,,,30
288.367,2.660221156000034,-0.927001953125,0.358154296875,-0.0380859375,-1.282442748091603,1.129770992366412,-0.030534351145038167,3686,0,8,-6.590883664868221,3140.4816423626235,0.010512,False,,False,,,,,30
288.372,2.6622289460000275,-0.921630859375,0.361572265625,-0.0400390625,-1.5877862595419847,1.0381679389312977,0.12213740458015267,3687,3,4,-6.588411741040096,3140.4775112284856,0.005256,False,,False,,,,,30
288.372,2.664229754999951,-0.921630859375,0.361572265625,-0.0400390625,-1.5877862595419847,1.0381679389312977,0.12213740458015267,3687,3,4,-6.588411741040096,3140.4775112284856,0.005256,False,,False,,,,,30
288.372,2.6662280450000253,-0.921630859375,0.361572265625,-0.0400390625,-1.5877862595419847,1.0381679389312977,0.12213740458015267,3687,3,4,-6.588411741040096,3140.4775112284856,0.005256,False,,False,,,,,30
288.377,2.668229205999978,-0.922607421875,0.35888671875,-0.040771484375,-1.5267175572519083,0.9465648854961831,0.24427480916030533,3688,6,1,-6.585939817211971,3140.477654991342,0.001314,False,,False,,,,,30
288.377,2.670230755000034,-0.922607421875,0.35888671875,-0.040771484375,-1.5267175572519083,0.9465648854961831,0.24427480916030533,3688,6,1,-6.585939817211971,3140.477654991342,0.001314,False,,False,,,,,30
288.382,2.672231970999974,-0.927734375,0.359619140625,-0.04248046875,-1.648854961832061,0.8854961832061068,0.061068702290076333,3688,0,0,-6.585939817211971,3140.4831660410373,0.0,False,,False,,,,,30
288.382,2.6742338909999717,-0.927734375,0.359619140625,-0.04248046875,-1.648854961832061,0.8854961832061068,0.061068702290076333,3688,0,0,-6.585939817211971,3140.4831660410373,0.0,False,,False,,,,,30
288.382,2.6762357740000198,-0.927734375,0.359619140625,-0.04248046875,-1.648854961832061,0.8854961832061068,0.061068702290076333,3688,0,0,-6.585939817211971,3140.4831660410373,0.0,False,,False,,,,,30
288.387,2.6782384350000257,-0.9248046875,0.35498046875,-0.04248046875,-1.618320610687023,1.0076335877862594,0.366412213740458,3687,1,6,-6.588411741040096,3140.4877191352216,0.007884,False,,False,,,,,30
288.387,2.68023942800005,-0.9248046875,0.35498046875,-0.04248046875,-1.618320610687023,1.0076335877862594,0.366412213740458,3687,1,6,-6.588411741040096,3140.4877191352216,0.007884,False,,False,,,,,30
288.392,2.6822395890000053,-0.9267578125,0.35498046875,-0.04296875,-1.7099236641221374,1.0687022900763359,0.2748091603053435,3687,3,5,-6.588411741040096,3140.4878232788674,0.0065699999999999995,False,,False,,,,,30
288.392,2.6842383609999843,-0.9267578125,0.35498046875,-0.04296875,-1.7099236641221374,1.0687022900763359,0.2748091603053435,3687,3,5,-6.588411741040096,3140.4878232788674,0.0065699999999999995,False,,False,,,,,30
288.392,2.686239429000011,-0.9267578125,0.35498046875,-0.04296875,-1.7099236641221374,1.0687022900763359,0.2748091603053435,3687,3,5,-6.588411741040096,3140.4878232788674,0.0065699999999999995,False,,False,,,,,30
288.397,2.6882407560000274,-0.926025390625,0.355224609375,-0.04443359375,-1.8625954198473282,1.0687022900763359,0.33587786259541985,3687,-4,4,-6.588411741040096,3140.485991838222,0.005256,False,,False,,,,,30
288.397,2.690241861000004,-0.926025390625,0.355224609375,-0.04443359375,-1.8625954198473282,1.0687022900763359,0.33587786259541985,3687,-4,4,-6.588411741040096,3140.485991838222,0.005256,False,,False,,,,,30
288.402,2.6922442070000443,-0.929931640625,0.355224609375,-0.043212890625,-1.8015267175572518,1.2519083969465647,0.366412213740458,3686,-3,0,-6.590883664868221,3140.4825664935024,0.0,False,,False,,,,,30
288.402,2.6942447750000156,-0.929931640625,0.355224609375,-0.043212890625,-1.8015267175572518,1.2519083969465647,0.366412213740458,3686,-3,0,-6.590883664868221,3140.4825664935024,0.0,False,,False,,,,,30
288.402,2.696246620000011,-0.929931640625,0.355224609375,-0.043212890625,-1.8015267175572518,1.2519083969465647,0.366412213740458,3686,-3,0,-6.590883664868221,3140.4825664935024,0.0,False,,False,,,,,30
288.407,2.698248724999985,-0.932861328125,0.35302734375,-0.03955078125,-1.9541984732824427,1.3435114503816794,0.3969465648854962,3687,1,3,-6.588411741040096,3140.4778563835694,0.003942,False,,False,,,,,30
288.407,2.7002492560000064,-0.932861328125,0.35302734375,-0.03955078125,-1.9541984732824427,1.3435114503816794,0.3969465648854962,3687,1,3,-6.588411741040096,3140.4778563835694,0.003942,False,,False,,,,,30
288.412,2.7022515099999964,-0.930908203125,0.353271484375,-0.03955078125,-2.259541984732824,1.4961832061068703,0.5801526717557252,3687,-4,2,-6.588411741040096,3140.475719934179,0.002628,False,,False,,,,,30
288.412,2.7042528370000127,-0.930908203125,0.353271484375,-0.03955078125,-2.259541984732824,1.4961832061068703,0.5801526717557252,3687,-4,2,-6.588411741040096,3140.475719934179,0.002628,False,,False,,,,,30
288.412,2.706254627000021,-0.930908203125,0.353271484375,-0.03955078125,-2.259541984732824,1.4961832061068703,0.5801526717557252,3687,-4,2,-6.588411741040096,3140.475719934179,0.002628,False,,False,,,,,30
288.41700000000003,2.7082562320000534,-0.933837890625,0.35546875,-0.0419921875,-2.3206106870229006,1.5877862595419847,0.5190839694656488,3687,2,4,-6.588411741040096,3140.4757690561987,0.005256,False,,False,,,,,30
288.41700000000003,2.7102577450000354,-0.933837890625,0.35546875,-0.0419921875,-2.3206106870229006,1.5877862595419847,0.5190839694656488,3687,2,4,-6.588411741040096,3140.4757690561987,0.005256,False,,False,,,,,30
288.422,2.7122597940000333,-0.932373046875,0.35986328125,-0.03857421875,-2.4427480916030535,1.4961832061068703,0.42748091603053434,3688,4,4,-6.585939817211971,3140.477647186755,0.005256,False,,False,,,,,30
288.422,2.714260566000007,-0.932373046875,0.35986328125,-0.03857421875,-2.4427480916030535,1.4961832061068703,0.42748091603053434,3688,4,4,-6.585939817211971,3140.477647186755,0.005256,False,,False,,,,,30
288.422,2.7162622450000526,-0.932373046875,0.35986328125,-0.03857421875,-2.4427480916030535,1.4961832061068703,0.42748091603053434,3688,4,4,-6.585939817211971,3140.477647186755,0.005256,False,,False,,,,,30
288.427,2.7182644790000268,-0.932861328125,0.359375,-0.037841796875,-2.595419847328244,1.4045801526717556,0.48854961832061067,3687,3,4,-6.588411741040096,3140.481029321864,0.005256,False,,False,,,,,30
288.427,2.7202651029999743,-0.932861328125,0.359375,-0.037841796875,-2.595419847328244,1.4045801526717556,0.48854961832061067,3687,3,4,-6.588411741040096,3140.481029321864,0.005256,False,,False,,,,,30
288.432,2.7222664299999906,-0.932373046875,0.359375,-0.039306640625,-2.687022900763359,1.2213740458015268,0.5801526717557252,3687,0,3,-6.588411741040096,3140.482040577718,0.003942,False,,False,,,,,30
288.432,2.7242678320000095,-0.932373046875,0.359375,-0.039306640625,-2.687022900763359,1.2213740458015268,0.5801526717557252,3687,0,3,-6.588411741040096,3140.482040577718,0.003942,False,,False,,,,,30
288.432,2.72626888100001,-0.932373046875,0.359375,-0.039306640625,-2.687022900763359,1.2213740458015268,0.5801526717557252,3687,0,3,-6.588411741040096,3140.482040577718,0.003942,False,,False,,,,,30
288.437,2.7282707450000316,-0.93359375,0.3583984375,-0.039794921875,-3.0534351145038165,1.3129770992366412,0.6106870229007634,3687,1,1,-6.588411741040096,3140.4810523271763,0.001314,False,,False,,,,,30
288.437,2.7302719980000347,-0.93359375,0.3583984375,-0.039794921875,-3.0534351145038165,1.3129770992366412,0.6106870229007634,3687,1,1,-6.588411741040096,3140.4810523271763,0.001314,False,,False,,,,,30
288.442,2.7322737890000326,-0.929931640625,0.35595703125,-0.037353515625,-3.0229007633587783,1.2519083969465647,0.732824427480916,3687,0,2,-6.588411741040096,3140.4801949472503,0.002628,False,,False,,,,,30
288.442,2.734274486000004,-0.929931640625,0.35595703125,-0.037353515625,-3.0229007633587783,1.2519083969465647,0.732824427480916,3687,0,2,-6.588411741040096,3140.4801949472503,0.002628,False,,False,,,,,30
288.442,2.7362756649999938,-0.929931640625,0.35595703125,-0.037353515625,-3.0229007633587783,1.2519083969465647,0.732824427480916,3687,0,2,-6.588411741040096,3140.4801949472503,0.002628,False,,False,,,,,30
288.447,2.738277640999968,-0.929931640625,0.3564453125,-0.0361328125,-3.236641221374046,1.3129770992366412,0.7022900763358778,3689,5,4,-6.583467893383846,3140.483040558764,0.005256,False,,False,,,,,30
288.447,2.740279079000061,-0.929931640625,0.3564453125,-0.0361328125,-3.236641221374046,1.3129770992366412,0.7022900763358778,3689,5,4,-6.583467893383846,3140.483040558764,0.005256,False,,False,,,,,30
288.452,2.7422806289999926,-0.923095703125,0.35888671875,-0.039306640625,-3.236641221374046,1.0687022900763359,0.8549618320610687,3687,2,1,-6.588411741040096,3140.488945023172,0.001314,False,,False,,,,,30
288.452,2.744281493000017,-0.923095703125,0.35888671875,-0.039306640625,-3.236641221374046,1.0687022900763359,0.8549618320610687,3687,2,1,-6.588411741040096,3140.488945023172,0.001314,False,,False,,,,,30
288.452,2.7462831159999723,-0.923095703125,0.35888671875,-0.039306640625,-3.236641221374046,1.0687022900763359,0.8549618320610687,3687,2,1,-6.588411741040096,3140.488945023172,0.001314,False,,False,,,,,30
288.457,2.748286351000047,-0.9248046875,0.35791015625,-0.037109375,-3.3587786259541983,1.0381679389312977,0.7633587786259541,3686,-5,2,-6.590883664868221,3140.4883722459044,0.002628,False,,False,,,,,30
288.457,2.7502856779999547,-0.9248046875,0.35791015625,-0.037109375,-3.3587786259541983,1.0381679389312977,0.7633587786259541,3686,-5,2,-6.590883664868221,3140.4883722459044,0.002628,False,,False,,,,,30
288.462,2.7522886169999765,-0.9248046875,0.358154296875,-0.041015625,-3.2061068702290076,0.916030534351145,0.732824427480916,3687,-5,1,-6.588411741040096,3140.482385138422,0.001314,False,,False,,,,,30
288.462,2.7542880920000243,-0.9248046875,0.358154296875,-0.041015625,-3.2061068702290076,0.916030534351145,0.732824427480916,3687,-5,1,-6.588411741040096,3140.482385138422,0.001314,False,,False,,,,,30
288.462,2.7562894559999904,-0.9248046875,0.358154296875,-0.041015625,-3.2061068702290076,0.916030534351145,0.732824427480916,3687,-5,1,-6.588411741040096,3140.482385138422,0.001314,False,,False,,,,,30
288.467,2.7582905980000305,-0.92431640625,0.3583984375,-0.04150390625,-3.236641221374046,0.8854961832061068,0.7938931297709924,3687,3,2,-6.588411741040096,3140.479114003285,0.002628,False,,False,,,,,30
288.467,2.7602916480000204,-0.92431640625,0.3583984375,-0.04150390625,-3.236641221374046,0.8854961832061068,0.7938931297709924,3687,3,2,-6.588411741040096,3140.479114003285,0.002628,False,,False,,,,,30
288.472,2.7622932900000023,-0.924072265625,0.356201171875,-0.0419921875,-3.2061068702290076,1.1603053435114503,0.732824427480916,3687,-3,-2,-6.588411741040096,3140.4781640183974,-0.002628,False,,False,,,,,30
288.472,2.7642945989999816,-0.924072265625,0.356201171875,-0.0419921875,-3.2061068702290076,1.1603053435114503,0.732824427480916,3687,-3,-2,-6.588411741040096,3140.4781640183974,-0.002628,False,,False,,,,,30
288.472,2.766295981999974,-0.924072265625,0.356201171875,-0.0419921875,-3.2061068702290076,1.1603053435114503,0.732824427480916,3687,-3,-2,-6.588411741040096,3140.4781640183974,-0.002628,False,,False,,,,,30
288.47700000000003,2.7682975870000064,-0.922119140625,0.349365234375,-0.045654296875,-3.3587786259541983,1.4351145038167938,0.8854961832061068,3687,0,1,-6.588411741040096,3140.477380515784,0.001314,False,,False,,,,,30
288.47700000000003,2.770298321000041,-0.922119140625,0.349365234375,-0.045654296875,-3.3587786259541983,1.4351145038167938,0.8854961832061068,3687,0,1,-6.588411741040096,3140.477380515784,0.001314,False,,False,,,,,30
288.482,2.7723007230000576,-0.920654296875,0.351806640625,-0.041748046875,-3.480916030534351,1.465648854961832,0.8244274809160305,3688,4,2,-6.585939817211971,3140.4785382435007,0.002628,False,,False,,,,,30
288.482,2.7743013279999786,-0.920654296875,0.351806640625,-0.041748046875,-3.480916030534351,1.465648854961832,0.8244274809160305,3688,4,2,-6.585939817211971,3140.4785382435007,0.002628,False,,False,,,,,30
288.482,2.776302284000053,-0.920654296875,0.351806640625,-0.041748046875,-3.480916030534351,1.465648854961832,0.8244274809160305,3688,4,2,-6.585939817211971,3140.4785382435007,0.002628,False,,False,,,,,30
288.487,2.778304574999993,-0.92431640625,0.3505859375,-0.0458984375,-3.480916030534351,1.5877862595419847,0.6717557251908397,3687,5,3,-6.588411741040096,3140.481304362077,0.003942,False,,False,,,,,30
288.487,2.780305791000046,-0.92431640625,0.3505859375,-0.0458984375,-3.480916030534351,1.5877862595419847,0.6717557251908397,3687,5,3,-6.588411741040096,3140.481304362077,0.003942,False,,False,,,,,30
288.492,2.782307654999954,-0.92578125,0.35009765625,-0.04638671875,-3.7557251908396947,1.9541984732824427,0.7633587786259541,3688,3,2,-6.585939817211971,3140.483586419929,0.002628,False,,False,,,,,30
288.492,2.7843083899999783,-0.92578125,0.35009765625,-0.04638671875,-3.7557251908396947,1.9541984732824427,0.7633587786259541,3688,3,2,-6.585939817211971,3140.483586419929,0.002628,False,,False,,,,,30
288.492,2.7863100130000475,-0.92578125,0.35009765625,-0.04638671875,-3.7557251908396947,1.9541984732824427,0.7633587786259541,3688,3,2,-6.585939817211971,3140.483586419929,0.002628,False,,False,,,,,30
