state_time,loop_time,accel_x,accel_y,accel_z,gyro_x,gyro_y,gyro_z,motor_angle,motor_velocity,motor_current,hip_angle,hip_velocity,hip_torque_from_current,did_heel_strike,gait_phase,did_toe_off,commanded_current,commanded_position,commanded_torque,commanded_voltage,temperature
3040.8540000000003,2.5775132659996416,-0.94970703125,0.297607421875,0.007080078125,-0.7022900763358778,0.7022900763358778,0.0916030534351145,5444,-4,-1,-0.4768753859786147,-0.0039003476166476203,-0.001314,False,,False,,,,,32
3040.8540000000003,2.579515555999933,-0.94970703125,0.297607421875,0.007080078125,-0.7022900763358778,0.7022900763358778,0.0916030534351145,5444,-4,-1,-0.4768753859786147,-0.0039003476166476203,-0.001314,False,,False,,,,,32
3040.859,2.5815174019999176,-0.94677734375,0.292724609375,0.007080078125,-0.732824427480916,0.7938931297709924,0.15267175572519084,5445,-1,0,-0.4744034621504897,10.089418891065753,0.0,False,,False,,,,,32
3040.859,2.583517858999585,-0.94677734375,0.292724609375,0.007080078125,-0.732824427480916,0.7938931297709924,0.15267175572519084,5445,-1,0,-0.4744034621504897,10.089418891065753,0.0,False,,False,,,,,32
3040.864,2.5855200759997388,-0.94482421875,0.298095703125,0.005859375,-0.6106870229007634,0.7022900763358778,0.061068702290076333,5446,-1,2,-0.4719315383223647,48.6769027799888,0.002628,False,,False,,,,,32
3040.864,2.5875201619996915,-0.94482421875,0.298095703125,0.005859375,-0.6106870229007634,0.7022900763358778,0.061068702290076333,5446,-1,2,-0.4719315383223647,48.6769027799888,0.002628,False,,False,,,,,32
3040.864,2.589521952999803,-0.94482421875,0.298095703125,0.005859375,-0.6106870229007634,0.7022900763358778,0.061068702290076333,5446,-1,2,-0.4719315383223647,48.6769027799888,0.002628,False,,False,,,,,32
3040.869,2.591523168999629,-0.9443359375,0.298828125,0.00732421875,-0.6412213740458015,0.549618320610687,0.15267175572519084,5443,-8,5,-0.4793473098067397,120.64815865920806,0.0065699999999999995,False,,False,,,,,32
3040.869,2.5935262739999416,-0.9443359375,0.298828125,0.00732421875,-0.6412213740458015,0.549618320610687,0.15267175572519084,5443,-8,5,-0.4793473098067397,120.64815865920806,0.0065699999999999995,False,,False,,,,,32
3040.869,2.59552621299963,-0.9443359375,0.298828125,0.00732421875,-0.6412213740458015,0.549618320610687,0.15267175572519084,5443,-8,5,-0.4793473098067397,120.64815865920806,0.0065699999999999995,False,,False,,,,,32
3040.869,2.597527169999921,-0.9443359375,0.298828125,0.00732421875,-0.6412213740458015,0.549618320610687,0.15267175572519084,5443,-8,5,-0.4793473098067397,120.64815865920806,0.0065699999999999995,False,,False,,,,,32
3040.869,2.599529570999948,-0.9443359375,0.298828125,0.00732421875,-0.6412213740458015,0.549618320610687,0.15267175572519084,5443,-8,5,-0.4793473098067397,120.64815865920806,0.0065699999999999995,False,,False,,,,,32
3040.869,2.601529694999954,-0.9443359375,0.298828125,0.00732421875,-0.6412213740458015,0.549618320610687,0.15267175572519084,5443,-8,5,-0.4793473098067397,120.64815865920806,0.0065699999999999995,False,,False,,,,,32
3040.869,2.603532188999907,-0.9443359375,0.298828125,0.00732421875,-0.6412213740458015,0.549618320610687,0.15267175572519084,5443,-8,5,-0.4793473098067397,120.64815865920806,0.0065699999999999995,False,,False,,,,,32
3040.884,2.60553310899968,-0.94775390625,0.295166015625,0.00341796875,-0.15267175572519084,0.3969465648854962,0.030534351145038167,5445,0,2,-0.4744034621504897,212.7886939523885,0.002628,False,,False,,,,,32
3040.884,2.607534917999601,-0.94775390625,0.295166015625,0.00341796875,-0.15267175572519084,0.3969465648854962,0.030534351145038167,5445,0,2,-0.4744034621504897,212.7886939523885,0.002628,False,,False,,,,,32
3040.884,2.609536041999945,-0.94775390625,0.295166015625,0.00341796875,-0.15267175572519084,0.3969465648854962,0.030534351145038167,5445,0,2,-0.4744034621504897,212.7886939523885,0.002628,False,,False,,,,,32
3040.889,2.6115385729999616,-0.9443359375,0.30029296875,0.00390625,-0.2748091603053435,0.5190839694656488,-0.061068702290076333,5444,-3,3,-0.4768753859786147,313.75413414419114,0.003942,False,,False,,,,,32
3040.889,2.6135389559999567,-0.9443359375,0.30029296875,0.00390625,-0.2748091603053435,0.5190839694656488,-0.061068702290076333,5444,-3,3,-0.4768753859786147,313.75413414419114,0.003942,False,,False,,,,,32
3040.8940000000002,2.615540208999846,-0.947998046875,0.29638671875,0.001953125,-0.3053435114503817,0.33587786259541985,-0.030534351145038167,5446,4,-2,-0.4719315383223647,427.37954769049117,-0.002628,False,,False,,,,,32
3040.8940000000002,2.6175413879996086,-0.947998046875,0.29638671875,0.001953125,-0.3053435114503817,0.33587786259541985,-0.030534351145038167,5446,4,-2,-0.4719315383223647,427.37954769049117,-0.002628,False,,False,,,,,32
3040.8940000000002,2.6195424939996883,-0.947998046875,0.29638671875,0.001953125,-0.3053435114503817,0.33587786259541985,-0.030534351145038167,5446,4,-2,-0.4719315383223647,427.37954769049117,-0.002628,False,,False,,,,,32
3040.899,2.6215432659996623,-0.94580078125,0.29638671875,0.00341796875,-0.3053435114503817,0.6106870229007634,-0.061068702290076333,5445,1,-6,-0.4744034621504897,556.6886009605322,-0.007884,False,,False,,,,,32
3040.899,2.6235460739999326,-0.94580078125,0.29638671875,0.00341796875,-0.3053435114503817,0.6106870229007634,-0.061068702290076333,5445,1,-6,-0.4744034621504897,556.6886009605322,-0.007884,False,,False,,,,,32
3040.904,2.625547493999875,-0.947509765625,0.298095703125,-0.001220703125,0.0,0.8854961832061068,-0.061068702290076333,5445,0,0,-0.4744034621504897,697.250863793019,0.0,False,,False,,,,,32
3040.904,2.627547821999997,-0.947509765625,0.298095703125,-0.001220703125,0.0,0.8854961832061068,-0.061068702290076333,5445,0,0,-0.4744034621504897,697.250863793019,0.0,False,,False,,,,,32
3040.904,2.629549537999992,-0.947509765625,0.298095703125,-0.001220703125,0.0,0.8854961832061068,-0.061068702290076333,5445,0,0,-0.4744034621504897,697.250863793019,0.0,False,,False,,,,,32
3040.909,2.6315522169998076,-0.947998046875,0.294677734375,0.002685546875,-0.061068702290076333,0.8854961832061068,-0.030534351145038167,5445,4,-3,-0.4744034621504897,845.1960296878518,-0.003942,False,,False,,,,,32
3040.909,2.6335527669998555,-0.947998046875,0.294677734375,0.002685546875,-0.061068702290076333,0.8854961832061068,-0.030534351145038167,5445,4,-3,-0.4744034621504897,845.1960296878518,-0.003942,False,,False,,,,,32
3040.914,2.6355542609999247,-0.94921875,0.2978515625,0.00439453125,0.030534351145038167,0.6106870229007634,-0.24427480916030533,5446,1,0,-0.4719315383223647,997.1823664767211,0.0,False,,False,,,,,32
3040.914,2.6375557179999305,-0.94921875,0.2978515625,0.00439453125,0.030534351145038167,0.6106870229007634,-0.24427480916030533,5446,1,0,-0.4719315383223647,997.1823664767211,0.0,False,,False,,,,,32
3040.914,2.6395573229997353,-0.94921875,0.2978515625,0.00439453125,0.030534351145038167,0.6106870229007634,-0.24427480916030533,5446,1,0,-0.4719315383223647,997.1823664767211,0.0,False,,False,,,,,32
3040.919,2.6415588549998574,-0.949951171875,0.299560546875,0.00146484375,0.0916030534351145,0.7633587786259541,-0.030534351145038167,5445,1,2,-0.4744034621504897,1150.3501129627057,0.002628,False,,False,,,,,33
3040.919,2.6435601819998737,-0.949951171875,0.299560546875,0.00146484375,0.0916030534351145,0.7633587786259541,-0.030534351145038167,5445,1,2,-0.4744034621504897,1150.3501129627057,0.002628,False,,False,,,,,33
3040.924,2.645562694999626,-0.94921875,0.299072265625,0.00390625,0.24427480916030533,0.7022900763358778,-0.0916030534351145,5446,5,0,-0.4719315383223647,1302.2862242819556,0.0,False,,False,,,,,33
3040.939,2.6638394899996456,-0.95068359375,0.30126953125,0.007568359375,0.4580152671755725,0.549618320610687,-0.15267175572519084,5445,-3,-7,-0.4744034621504897,1444.2627548582147,-0.009198,False,,False,,,,,32
3040.944,2.665841631999683,-0.947265625,0.305419921875,0.0068359375,0.48854961832061067,0.6106870229007634,-0.12213740458015267,5444,-7,-3,-0.4768753859786147,1569.1135295114393,-0.003942,False,,False,,,,,32
3040.944,2.667842551999911,-0.947265625,0.305419921875,0.0068359375,0.48854961832061067,0.6106870229007634,-0.12213740458015267,5444,-7,-3,-0.4768753859786147,1569.1135295114393,-0.003942,False,,False,,,,,32
3040.944,2.6698441759999696,-0.947265625,0.305419921875,0.0068359375,0.48854961832061067,0.6106870229007634,-0.12213740458015267,5444,-7,-3,-0.4768753859786147,1569.1135295114393,-0.003942,False,,False,,,,,32
3040.949,2.6718462629996793,-0.948486328125,0.305908203125,0.0087890625,0.6106870229007634,0.549618320610687,-0.0916030534351145,5445,0,-2,-0.4744034621504897,1684.5456781274465,-0.002628,False,,False,,,,,32
3040.949,2.6738487749998967,-0.948486328125,0.305908203125,0.0087890625,0.6106870229007634,0.549618320610687,-0.0916030534351145,5445,0,-2,-0.4744034621504897,1684.5456781274465,-0.002628,False,,False,,,,,32
3040.954,2.6758488249997754,-0.949951171875,0.30517578125,0.005126953125,0.6106870229007634,0.6717557251908397,-0.183206106870229,5445,2,1,-0.4744034621504897,1797.153284998251,0.001314,False,,False,,,,,32
3040.954,2.6778518189998977,-0.949951171875,0.30517578125,0.005126953125,0.6106870229007634,0.6717557251908397,-0.183206106870229,5445,2,1,-0.4744034621504897,1797.153284998251,0.001314,False,,False,,,,,32
3040.954,2.6798547949997555,-0.949951171875,0.30517578125,0.005126953125,0.6106870229007634,0.6717557251908397,-0.183206106870229,5445,2,1,-0.4744034621504897,1797.153284998251,0.001314,False,,False,,,,,32
3040.9590000000003,2.6818527699997503,-0.950927734375,0.305908203125,0.007568359375,0.6717557251908397,0.6106870229007634,-0.15267175572519084,5445,2,-7,-0.4744034621504897,1905.7649217937874,-0.009198,False,,False,,,,,32
3040.9590000000003,2.6838561719996505,-0.950927734375,0.305908203125,0.007568359375,0.6717557251908397,0.6106870229007634,-0.15267175572519084,5445,2,-7,-0.4744034621504897,1905.7649217937874,-0.009198,False,,False,,,,,32
3040.964,2.6858558509998147,-0.945068359375,0.3115234375,0.006591796875,0.9465648854961831,0.6412213740458015,0.12213740458015267,5445,0,-6,-0.4744034621504897,2009.4559882309388,-0.007884,False,,False,,,,,32
3040.964,2.6878576969997994,-0.945068359375,0.3115234375,0.006591796875,0.9465648854961831,0.6412213740458015,0.12213740458015267,5445,0,-6,-0.4744034621504897,2009.4559882309388,-0.007884,False,,False,,,,,32
3040.964,2.6898598209995725,-0.945068359375,0.3115234375,0.006591796875,0.9465648854961831,0.6412213740458015,0.12213740458015267,5445,0,-6,-0.4744034621504897,2009.4559882309388,-0.007884,False,,False,,,,,32
3040.969,2.6918840549997185,-0.953125,0.30859375,0.006103515625,0.9465648854961831,0.549618320610687,0.0,5445,-2,-2,-0.4744034621504897,2107.525499376939,-0.002628,False,,False,,,,,32
3040.969,2.693864141999711,-0.953125,0.30859375,0.006103515625,0.9465648854961831,0.549618320610687,0.0,5445,-2,-2,-0.4744034621504897,2107.525499376939,-0.002628,False,,False,,,,,32
3040.974,2.6958638959999917,-0.949951171875,0.308837890625,0.008056640625,1.099236641221374,0.5801526717557252,0.15267175572519084,5444,-4,-8,-0.4768753859786147,2199.466250933799,-0.010512,False,,False,,,,,32
3040.974,2.6978651119998176,-0.949951171875,0.308837890625,0.008056640625,1.099236641221374,0.5801526717557252,0.15267175572519084,5444,-4,-8,-0.4768753859786147,2199.466250933799,-0.010512,False,,False,,,,,32
3040.974,2.699866586999633,-0.949951171875,0.308837890625,0.008056640625,1.099236641221374,0.5801526717557252,0.15267175572519084,5444,-4,-8,-0.4768753859786147,2199.466250933799,-0.010512,False,,False,,,,,32
3040.9790000000003,2.7018679889997657,-0.94580078125,0.309326171875,0.006591796875,1.282442748091603,0.48854961832061067,0.061068702290076333,5445,3,-1,-0.4744034621504897,2284.944196935225,-0.001314,False,,False,,,,,32
3040.9790000000003,2.703871001999687,-0.94580078125,0.309326171875,0.006591796875,1.282442748091603,0.48854961832061067,0.061068702290076333,5445,3,-1,-0.4744034621504897,2284.944196935225,-0.001314,False,,False,,,,,32
3040.984,2.705870791999587,-0.94873046875,0.30712890625,0.00634765625,1.648854961832061,0.48854961832061067,0.061068702290076333,5444,-8,-2,-0.4768753859786147,2363.7750956272207,-0.002628,False,,False,,,,,32
3040.984,2.7078723419999733,-0.94873046875,0.30712890625,0.00634765625,1.648854961832061,0.48854961832061067,0.061068702290076333,5444,-8,-2,-0.4768753859786147,2363.7750956272207,-0.002628,False,,False,,,,,32
3040.984,2.7098736689999896,-0.94873046875,0.30712890625,0.00634765625,1.648854961832061,0.48854961832061067,0.061068702290076333,5444,-8,-2,-0.4768753859786147,2363.7750956272207,-0.002628,False,,False,,,,,32
3040.989,2.7118758669998897,-0.945556640625,0.308837890625,0.0087890625,1.9236641221374045,0.12213740458015267,0.12213740458015267,5445,-1,-3,-0.4744034621504897,2435.8992066432565,-0.003942,False,,False,,,,,32
3040.989,2.713878861000012,-0.945556640625,0.308837890625,0.0087890625,1.9236641221374045,0.12213740458015267,0.12213740458015267,5445,-1,-3,-0.4744034621504897,2435.8992066432565,-0.003942,False,,False,,,,,32
3040.994,2.715877891999753,-0.944091796875,0.3076171875,0.0078125,2.045801526717557,0.0916030534351145,0.12213740458015267,5444,-8,-1,-0.4768753859786147,2501.363675838602,-0.001314,False,,False,,,,,32
3040.994,2.7178800339997906,-0.944091796875,0.3076171875,0.0078125,2.045801526717557,0.0916030534351145,0.12213740458015267,5444,-8,-1,-0.4768753859786147,2501.363675838602,-0.001314,False,,False,,,,,32
3040.994,2.719880694999574,-0.944091796875,0.3076171875,0.0078125,2.045801526717557,0.0916030534351145,0.12213740458015267,5444,-8,-1,-0.4768753859786147,2501.363675838602,-0.001314,False,,False,,,,,32
3040.9990000000003,2.7218825599998127,-0.94482421875,0.307861328125,0.008056640625,2.198473282442748,-0.21374045801526717,0.15267175572519084,5445,-1,-3,-0.4744034621504897,2560.3044492649324,-0.003942,False,,False,,,,,32
3040.9990000000003,2.7238853499998186,-0.94482421875,0.307861328125,0.008056640625,2.198473282442748,-0.21374045801526717,0.15267175572519084,5445,-1,-3,-0.4744034621504897,2560.3044492649324,-0.003942,False,,False,,,,,32
3041.004,2.7258853069997713,-0.947021484375,0.30810546875,0.00830078125,2.4427480916030535,-0.15267175572519084,0.15267175572519084,5445,2,3,-0.4744034621504897,2612.931635961777,0.003942,False,,False,,,,,32
3041.004,2.7278870969998934,-0.947021484375,0.30810546875,0.00830078125,2.4427480916030535,-0.15267175572519084,0.15267175572519084,5445,2,3,-0.4744034621504897,2612.931635961777,0.003942,False,,False,,,,,32
3041.004,2.729889017000005,-0.947021484375,0.30810546875,0.00830078125,2.4427480916030535,-0.15267175572519084,0.15267175572519084,5445,2,3,-0.4744034621504897,2612.931635961777,0.003942,False,,False,,,,,32
3041.009,2.7318907709995983,-0.945556640625,0.31103515625,0.009033203125,2.595419847328244,-0.21374045801526717,0.183206106870229,5445,3,2,-0.4744034621504897,2659.5108080590294,0.002628,False,,False,,,,,32
3041.009,2.7338940059999004,-0.945556640625,0.31103515625,0.009033203125,2.595419847328244,-0.21374045801526717,0.183206106870229,5445,3,2,-0.4744034621504897,2659.5108080590294,0.002628,False,,False,,,,,32
3041.014,2.735923702999571,-0.947998046875,0.30810546875,0.00927734375,2.8091603053435112,-0.2748091603053435,0.12213740458015267,5444,-5,-1,-0.4768753859786147,2700.348332591462,-0.001314,False,,False,,,,,32
3041.014,2.737894937999954,-0.947998046875,0.30810546875,0.00927734375,2.8091603053435112,-0.2748091603053435,0.12213740458015267,5444,-5,-1,-0.4768753859786147,2700.348332591462,-0.001314,False,,False,,,,,32
3041.014,2.7398965059996954,-0.947998046875,0.30810546875,0.00927734375,2.8091603053435112,-0.2748091603053435,0.12213740458015267,5444,-5,-1,-0.4768753859786147,2700.348332591462,-0.001314,False,,False,,,,,32
3041.0190000000002,2.741898036999828,-0.949462890625,0.3095703125,0.00732421875,2.8396946564885495,-0.33587786259541985,0.24427480916030533,5445,-1,-1,-0.4744034621504897,2735.7874531028733,-0.001314,False,,False,,,,,32
3041.0190000000002,2.7439003649997176,-0.949462890625,0.3095703125,0.00732421875,2.8396946564885495,-0.33587786259541985,0.24427480916030533,5445,-1,-1,-0.4744034621504897,2735.7874531028733,-0.001314,False,,False,,,,,32
3041.024,2.7459002659998077,-0.947265625,0.310791015625,0.007080078125,3.145038167938931,-0.24427480916030533,0.15267175572519084,5444,0,-4,-0.4768753859786147,2766.1955224962567,-0.005256,False,,False,,,,,32
3041.024,2.747902241999782,-0.947265625,0.310791015625,0.007080078125,3.145038167938931,-0.24427480916030533,0.15267175572519084,5444,0,-4,-0.4768753859786147,2766.1955224962567,-0.005256,False,,False,,,,,32
3041.024,2.749903142999756,-0.947265625,0.310791015625,0.007080078125,3.145038167938931,-0.24427480916030533,0.15267175572519084,5444,0,-4,-0.4768753859786147,2766.1955224962567,-0.005256,False,,False,,,,,32
3041.029,2.7519043039997086,-0.950927734375,0.31103515625,0.006591796875,3.3587786259541983,-0.42748091603053434,0.0916030534351145,5443,-4,-2,-0.4793473098067397,2791.947593828373,-0.002628,False,,False,,,,,32
3041.029,2.753906390999873,-0.950927734375,0.31103515625,0.006591796875,3.3587786259541983,-0.42748091603053434,0.0916030534351145,5443,-4,-2,-0.4793473098067397,2791.947593828373,-0.002628,False,,False,,,,,32
3041.034,2.7559073669999634,-0.948974609375,0.30908203125,0.00439453125,3.450381679389313,-0.24427480916030533,0.24427480916030533,5444,1,-1,-0.4768753859786147,2813.4286858115365,-0.001314,False,,False,,,,,32
3041.034,2.7579083609998634,-0.948974609375,0.30908203125,0.00439453125,3.450381679389313,-0.24427480916030533,0.24427480916030533,5444,1,-1,-0.4768753859786147,2813.4286858115365,-0.001314,False,,False,,,,,32
3041.034,2.7599096879998797,-0.948974609375,0.30908203125,0.00439453125,3.450381679389313,-0.24427480916030533,0.24427480916030533,5444,1,-1,-0.4768753859786147,2813.4286858115365,-0.001314,False,,False,,,,,32
3041.039,2.7619117749995894,-0.947021484375,0.3095703125,0.00390625,3.541984732824427,-0.12213740458015267,0.24427480916030533,5444,5,-3,-0.4768753859786147,2831.028373067423,-0.003942,False,,False,,,,,32
3041.039,2.7639144169997962,-0.947021484375,0.3095703125,0.00390625,3.541984732824427,-0.12213740458015267,0.24427480916030533,5444,5,-3,-0.4768753859786147,2831.028373067423,-0.003942,False,,False,,,,,32
3041.044,2.765914669999802,-0.947509765625,0.30859375,0.005859375,3.9389312977099236,-0.2748091603053435,0.183206106870229,5443,0,-3,-0.4793473098067397,2845.1218671532733,-0.003942,False,,False,,,,,32
3041.044,2.7679165159997865,-0.947509765625,0.30859375,0.005859375,3.9389312977099236,-0.2748091603053435,0.183206106870229,5443,0,-3,-0.4793473098067397,2845.1218671532733,-0.003942,False,,False,,,,,32
3041.044,2.769917620999877,-0.947509765625,0.30859375,0.005859375,3.9389312977099236,-0.2748091603053435,0.183206106870229,5443,0,-3,-0.4793473098067397,2845.1218671532733,-0.003942,False,,False,,,,,32
3041.049,2.7719196529997134,-0.947998046875,0.303955078125,0.0078125,4.152671755725191,-0.183206106870229,0.183206106870229,5444,0,-2,-0.4768753859786147,2856.074081560115,-0.002628,False,,False,,,,,32
3041.049,2.773922109999603,-0.947998046875,0.303955078125,0.0078125,4.152671755725191,-0.183206106870229,0.183206106870229,5444,0,-2,-0.4768753859786147,2856.074081560115,-0.002628,False,,False,,,,,32
3041.054,2.775922251999873,-0.94482421875,0.30322265625,0.0078125,4.091603053435114,-0.24427480916030533,0.183206106870229,5443,0,-5,-0.4793473098067397,2864.2396030316163,-0.0065699999999999995,False,,False,,,,,32
3041.054,2.7779238019998047,-0.94482421875,0.30322265625,0.0078125,4.091603053435114,-0.24427480916030533,0.183206106870229,5443,0,-5,-0.4793473098067397,2864.2396030316163,-0.0065699999999999995,False,,False,,,,,32
3041.054,2.779956702999698,-0.94482421875,0.30322265625,0.0078125,4.091603053435114,-0.24427480916030533,0.183206106870229,5443,0,-5,-0.4793473098067397,2864.2396030316163,-0.0065699999999999995,False,,False,,,,,32
3041.059,2.781927252999594,-0.944091796875,0.30322265625,0.008544921875,4.305343511450381,-0.3053435114503817,0.12213740458015267,5441,-4,0,-0.4842911574629897,2869.9484931238558,0.0,False,,False,,,,,32
3041.059,2.7839293759998327,-0.944091796875,0.30322265625,0.008544921875,4.305343511450381,-0.3053435114503817,0.12213740458015267,5441,-4,0,-0.4842911574629897,2869.9484931238558,0.0,False,,False,,,,,32
3041.064,2.7859302959996057,-0.942626953125,0.30224609375,0.006591796875,4.488549618320611,-0.2748091603053435,0.030534351145038167,5442,-1,4,-0.4818192336348647,2873.516242871358,0.005256,False,,False,,,,,32
3041.064,2.7879314570000133,-0.942626953125,0.30224609375,0.006591796875,4.488549618320611,-0.2748091603053435,0.030534351145038167,5442,-1,4,-0.4818192336348647,2873.516242871358,0.005256,False,,False,,,,,32
3041.064,2.7899324509999133,-0.942626953125,0.30224609375,0.006591796875,4.488549618320611,-0.2748091603053435,0.030534351145038167,5442,-1,4,-0.4818192336348647,2873.516242871358,0.005256,False,,False,,,,,32
3041.069,2.7919343529997604,-0.9462890625,0.30322265625,0.006103515625,4.519083969465648,-0.48854961832061067,0.15267175572519084,5442,-5,3,-0.4818192336348647,2875.246946213825,0.003942,False,,False,,,,,32
3041.069,2.79393705099983,-0.9462890625,0.30322265625,0.006103515625,4.519083969465648,-0.48854961832061067,0.15267175572519084,5442,-5,3,-0.4818192336348647,2875.246946213825,0.003942,False,,False,,,,,32
3041.074,2.7959382299995923,-0.946533203125,0.305419921875,0.007080078125,4.7328244274809155,-0.5190839694656488,0.0916030534351145,5440,-2,-3,-0.4867630812911147,2875.4128452831937,-0.003942,False,,False,,,,,32
3041.074,2.7979396499999893,-0.946533203125,0.305419921875,0.007080078125,4.7328244274809155,-0.5190839694656488,0.0916030534351145,5440,-2,-3,-0.4867630812911147,2875.4128452831937,-0.003942,False,,False,,,,,32
3041.074,2.7999410879997413,-0.946533203125,0.305419921875,0.007080078125,4.7328244274809155,-0.5190839694656488,0.0916030534351145,5440,-2,-3,-0.4867630812911147,2875.4128452831937,-0.003942,False,,False,,,,,32
3041.079,2.801942489999874,-0.946044921875,0.302001953125,0.005126953125,4.7328244274809155,-0.5190839694656488,-0.0916030534351145,5442,1,-11,-0.4818192336348647,2874.264525087861,-0.014454,False,,False,,,,,32
3041.079,2.8039453359997424,-0.946044921875,0.302001953125,0.005126953125,4.7328244274809155,-0.5190839694656488,-0.0916030534351145,5442,1,-11,-0.4818192336348647,2874.264525087861,-0.014454,False,,False,,,,,32
3041.0840000000003,2.805944903999716,-0.947509765625,0.304443359375,0.0078125,4.916030534351145,-0.8244274809160305,0.15267175572519084,5441,-5,-5,-0.4842911574629897,2872.0379715509916,-0.0065699999999999995,False,,False,,,,,32
3041.0840000000003,2.8079464719999123,-0.947509765625,0.304443359375,0.0078125,4.916030534351145,-0.8244274809160305,0.15267175572519084,5441,-5,-5,-0.4842911574629897,2872.0379715509916,-0.0065699999999999995,False,,False,,,,,32
3041.0840000000003,2.809947539999939,-0.947509765625,0.304443359375,0.0078125,4.916030534351145,-0.8244274809160305,0.15267175572519084,5441,-5,-5,-0.4842911574629897,2872.0379715509916,-0.0065699999999999995,False,,False,,,,,32
3041.089,2.8119500529996913,-0.94775390625,0.3037109375,0.01025390625,5.1603053435114505,-0.6717557251908397,-0.030534351145038167,5440,-9,1,-0.4867630812911147,2868.937415308546,0.001314,False,,False,,,,,32
3041.089,2.813952861999951,-0.94775390625,0.3037109375,0.01025390625,5.1603053435114505,-0.6717557251908397,-0.030534351145038167,5440,-9,1,-0.4867630812911147,2868.937415308546,0.001314,False,,False,,,,,32
3041.094,2.815955651999957,-0.94775390625,0.30517578125,0.0068359375,5.221374045801526,-0.6717557251908397,-0.21374045801526717,5439,-1,2,-0.4892350051192397,2865.144705435178,0.002628,False,,False,,,,,32
3041.094,2.817954312999973,-0.94775390625,0.30517578125,0.0068359375,5.221374045801526,-0.6717557251908397,-0.21374045801526717,5439,-1,2,-0.4892350051192397,2865.144705435178,0.002628,False,,False,,,,,32
3041.094,2.8199563999996826,-0.94775390625,0.30517578125,0.0068359375,5.221374045801526,-0.6717557251908397,-0.21374045801526717,5439,-1,2,-0.4892350051192397,2865.144705435178,0.002628,False,,False,,,,,32
3041.099,2.821958022999752,-0.9482421875,0.3017578125,0.01025390625,5.465648854961832,-0.7938931297709924,-0.15267175572519084,5439,-4,5,-0.4892350051192397,2860.8292716943597,0.0065699999999999995,False,,False,,,,,32
3041.099,2.824007368999901,-0.9482421875,0.3017578125,0.01025390625,5.465648854961832,-0.7938931297709924,-0.15267175572519084,5439,-4,5,-0.4892350051192397,2860.8292716943597,0.0065699999999999995,False,,False,,,,,32
3041.1040000000003,2.825961270999869,-0.94921875,0.30615234375,0.009033203125,5.648854961832061,-0.6106870229007634,-0.3053435114503817,5438,0,-5,-0.4917069289473647,2856.140530132719,-0.0065699999999999995,False,,False,,,,,32
3041.1040000000003,2.8279633019997164,-0.94921875,0.30615234375,0.009033203125,5.648854961832061,-0.6106870229007634,-0.3053435114503817,5438,0,-5,-0.4917069289473647,2856.140530132719,-0.0065699999999999995,False,,False,,,,,32
3041.1040000000003,2.8299641109997538,-0.94921875,0.30615234375,0.009033203125,5.648854961832061,-0.6106870229007634,-0.3053435114503817,5438,0,-5,-0.4917069289473647,2856.140530132719,-0.0065699999999999995,False,,False,,,,,32
3041.109,2.8319666789998337,-0.950439453125,0.3046875,0.01318359375,5.709923664122138,-0.7938931297709924,-0.33587786259541985,5436,-11,-1,-0.4966507766036147,2851.203605620368,-0.001314,False,,False,,,,,32
3041.109,2.833968117999575,-0.950439453125,0.3046875,0.01318359375,5.709923664122138,-0.7938931297709924,-0.33587786259541985,5436,-11,-1,-0.4966507766036147,2851.203605620368,-0.001314,False,,False,,,,,32
3041.114,2.8359692229996654,-0.9482421875,0.306640625,0.011962890625,5.679389312977099,-1.0381679389312977,-0.549618320610687,5437,-7,-6,-0.4941788527754897,2846.1304267694327,-0.007884,False,,False,,,,,32
3041.114,2.837970457999745,-0.9482421875,0.306640625,0.011962890625,5.679389312977099,-1.0381679389312977,-0.549618320610687,5437,-7,-6,-0.4941788527754897,2846.1304267694327,-0.007884,False,,False,,,,,32
3041.114,2.839971358999719,-0.9482421875,0.306640625,0.011962890625,5.679389312977099,-1.0381679389312977,-0.549618320610687,5437,-7,-6,-0.4941788527754897,2846.1304267694327,-0.007884,False,,False,,,,,32
3041.119,2.8419728349999787,-0.9482421875,0.306884765625,0.01318359375,6.076335877862595,-0.9770992366412213,-0.42748091603053434,5434,-12,-6,-0.5015946242598647,2841.018462541845,-0.007884,False,,False,,,,,32
3041.119,2.8439764579998155,-0.9482421875,0.306884765625,0.01318359375,6.076335877862595,-0.9770992366412213,-0.42748091603053434,5434,-12,-6,-0.5015946242598647,2841.018462541845,-0.007884,False,,False,,,,,32
3041.1240000000003,2.845975952999652,-0.9462890625,0.309814453125,0.01416015625,6.045801526717557,-1.4351145038167938,-0.6717557251908397,5434,-4,0,-0.5015946242598647,2835.944502524728,0.0,False,,False,,,,,32
3041.1240000000003,2.8479769279997527,-0.9462890625,0.309814453125,0.01416015625,6.045801526717557,-1.4351145038167938,-0.6717557251908397,5434,-4,0,-0.5015946242598647,2835.944502524728,0.0,False,,False,,,,,32
3041.1240000000003,2.849978421999822,-0.9462890625,0.309814453125,0.01416015625,6.045801526717557,-1.4351145038167938,-0.6717557251908397,5434,-4,0,-0.5015946242598647,2835.944502524728,0.0,False,,False,,,,,32
3041.129,2.8519802679998065,-0.943603515625,0.310791015625,0.015380859375,6.137404580152672,-1.3129770992366412,-0.48854961832061067,5432,-9,1,-0.5065384719161147,2830.975864005011,0.001314,False,,False,,,,,32
3041.129,2.853983798999707,-0.943603515625,0.310791015625,0.015380859375,6.137404580152672,-1.3129770992366412,-0.48854961832061067,5432,-9,1,-0.5065384719161147,2830.975864005011,0.001314,False,,False,,,,,32
3041.134,2.855983422999998,-0.940673828125,0.312255859375,0.013427734375,6.1679389312977095,-1.5572519083969465,-0.4580152671755725,5425,-17,0,-0.5238419387129897,2826.156634991441,0.0,False,,False,,,,,32
3041.134,2.8579855099997076,-0.940673828125,0.312255859375,0.013427734375,6.1679389312977095,-1.5572519083969465,-0.4580152671755725,5425,-17,0,-0.5238419387129897,2826.156634991441,0.0,False,,False,,,,,32
3041.134,2.8599861889997555,-0.940673828125,0.312255859375,0.013427734375,6.1679389312977095,-1.5572519083969465,-0.4580152671755725,5425,-17,0,-0.5238419387129897,2826.156634991441,0.0,False,,False,,,,,32
3041.139,2.861987497999962,-0.93408203125,0.322265625,0.01416015625,5.1603053435114505,-1.2213740458015268,0.12213740458015267,5413,-55,-4,-0.5535050246504897,2821.5018651537252,-0.005256,False,,False,,,,,32
3041.139,2.8639904919996297,-0.93408203125,0.322265625,0.01416015625,5.1603053435114505,-1.2213740458015268,0.12213740458015267,5413,-55,-4,-0.5535050246504897,2821.5018651537252,-0.005256,False,,False,,,,,32
3041.1440000000002,2.8659902269996564,-0.9033203125,0.353515625,0.014404296875,-0.6106870229007634,-0.183206106870229,4.213740458015267,5389,-108,-1,-0.6128311965254897,2817.0038662825013,-0.001314,False,,False,,,,,32
3041.1440000000002,2.867992072999641,-0.9033203125,0.353515625,0.014404296875,-0.6106870229007634,-0.183206106870229,4.213740458015267,5389,-108,-1,-0.6128311965254897,2817.0038662825013,-0.001314,False,,False,,,,,32
3041.1440000000002,2.869993195999996,-0.9033203125,0.353515625,0.014404296875,-0.6106870229007634,-0.183206106870229,4.213740458015267,5389,-108,-1,-0.6128311965254897,2817.0038662825013,-0.001314,False,,False,,,,,32
3041.149,2.87199493099979,-0.905029296875,0.352294921875,0.010009765625,-0.9465648854961831,-0.3969465648854962,4.33587786259542,5355,-141,-1,-0.6968766066817397,2812.632444803742,-0.001314,False,,False,,,,,32
3041.149,2.8739983699997538,-0.905029296875,0.352294921875,0.010009765625,-0.9465648854961831,-0.3969465648854962,4.33587786259542,5355,-141,-1,-0.6968766066817397,2812.632444803742,-0.001314,False,,False,,,,,32
3041.154,2.875997678999738,-0.908203125,0.3837890625,0.0029296875,1.5877862595419847,0.6717557251908397,5.801526717557252,5317,-168,-3,-0.7908097121504897,2808.365861031777,-0.003942,False,,False,,,,,32
3041.154,2.877999746999649,-0.908203125,0.3837890625,0.0029296875,1.5877862595419847,0.6717557251908397,5.801526717557252,5317,-168,-3,-0.7908097121504897,2808.365861031777,-0.003942,False,,False,,,,,32
3041.154,2.8800010369996016,-0.908203125,0.3837890625,0.0029296875,1.5877862595419847,0.6717557251908397,5.801526717557252,5317,-168,-3,-0.7908097121504897,2808.365861031777,-0.003942,False,,False,,,,,32
3041.159,2.8820024199999352,-0.8837890625,0.346923828125,-0.006103515625,2.778625954198473,-0.549618320610687,5.068702290076335,5278,-173,5,-0.8872147414473647,2804.2148347145317,0.0065699999999999995,False,,False,,,,,32
3041.159,2.88400667399992,-0.8837890625,0.346923828125,-0.006103515625,2.778625954198473,-0.549618320610687,5.068702290076335,5278,-173,5,-0.8872147414473647,2804.2148347145317,0.0065699999999999995,False,,False,,,,,32
3041.164,2.886004111999682,-0.8876953125,0.329345703125,-0.003662109375,2.9923664122137406,-0.0916030534351145,6.076335877862595,5233,-202,3,-0.9984513137129897,2800.199199708253,0.003942,False,,False,,,,,32
3041.164,2.8880063279998467,-0.8876953125,0.329345703125,-0.003662109375,2.9923664122137406,-0.0916030534351145,6.076335877862595,5233,-202,3,-0.9984513137129897,2800.199199708253,0.003942,False,,False,,,,,32
3041.164,2.8900071929997466,-0.8876953125,0.329345703125,-0.003662109375,2.9923664122137406,-0.0916030534351145,6.076335877862595,5233,-202,3,-0.9984513137129897,2800.199199708253,0.003942,False,,False,,,,,32
3041.169,2.8920083349999004,-0.9228515625,0.34228515625,0.019287109375,2.5038167938931295,0.030534351145038167,6.900763358778626,5184,-215,3,-1.1195755812911146,2796.3246466576206,0.003942,False,,False,,,,,32
3041.169,2.8940111259998957,-0.9228515625,0.34228515625,0.019287109375,2.5038167938931295,0.030534351145038167,6.900763358778626,5184,-215,3,-1.1195755812911146,2796.3246466576206,0.003942,False,,False,,,,,32
3041.174,2.8960112859999754,-0.895263671875,0.3046875,0.003662109375,2.3206106870229006,-0.732824427480916,5.404580152671755,5137,-212,3,-1.2357560012129896,2792.6028483711343,0.003942,False,,False,,,,,32
3041.174,2.8980128169996533,-0.895263671875,0.3046875,0.003662109375,2.3206106870229006,-0.732824427480916,5.404580152671755,5137,-212,3,-1.2357560012129896,2792.6028483711343,0.003942,False,,False,,,,,32
3041.174,2.9000147560000187,-0.895263671875,0.3046875,0.003662109375,2.3206106870229006,-0.732824427480916,5.404580152671755,5137,-212,3,-1.2357560012129896,2792.6028483711343,0.003942,False,,False,,,,,32
3041.179,2.902016805999665,-0.943603515625,0.3408203125,0.011962890625,4.183206106870228,0.8854961832061068,5.984732824427481,5087,-221,1,-1.3593521926192396,2789.057478729148,0.001314,False,,False,,,,,32
3041.179,2.904019354999946,-0.943603515625,0.3408203125,0.011962890625,4.183206106870228,0.8854961832061068,5.984732824427481,5087,-221,1,-1.3593521926192396,2789.057478729148,0.001314,False,,False,,,,,32
3041.184,2.906020071999592,-0.910888671875,0.329345703125,0.025390625,3.6946564885496183,-0.732824427480916,5.557251908396946,5034,-242,1,-1.4903641555098646,2785.698639179798,0.001314,False,,False,,,,,32
3041.184,2.9080226949999997,-0.910888671875,0.329345703125,0.025390625,3.6946564885496183,-0.732824427480916,5.557251908396946,5034,-242,1,-1.4903641555098646,2785.698639179798,0.001314,False,,False,,,,,32
3041.184,2.9100233929998467,-0.910888671875,0.329345703125,0.025390625,3.6946564885496183,-0.732824427480916,5.557251908396946,5034,-242,1,-1.4903641555098646,2785.698639179798,0.001314,False,,False,,,,,32
3041.189,2.912025108999842,-0.932373046875,0.3232421875,0.0224609375,4.213740458015267,-1.1908396946564885,5.526717557251908,4990,-240,6,-1.5991288039473646,2782.5446177907515,0.007884,False,,False,,,,,32
3041.189,2.914027991999774,-0.932373046875,0.3232421875,0.0224609375,4.213740458015267,-1.1908396946564885,5.526717557251908,4990,-240,6,-1.5991288039473646,2782.5446177907515,0.007884,False,,False,,,,,32
3041.194,2.9160289489996103,-0.921875,0.29736328125,0.001220703125,7.206106870229007,-2.2900763358778624,3.0534351145038165,4945,-204,3,-1.7103653762129896,2779.6328249104513,0.003942,False,,False,,,,,32
3041.194,2.9180303879998064,-0.921875,0.29736328125,0.001220703125,7.206106870229007,-2.2900763358778624,3.0534351145038165,4945,-204,3,-1.7103653762129896,2779.6328249104513,0.003942,False,,False,,,,,32
3041.194,2.9200320299996747,-0.921875,0.29736328125,0.001220703125,7.206106870229007,-2.2900763358778624,3.0534351145038165,4945,-204,3,-1.7103653762129896,2779.6328249104513,0.003942,False,,False,,,,,32
3041.199,2.92203361699967,-0.942138671875,0.331787109375,0.020751953125,9.49618320610687,-2.015267175572519,3.236641221374046,4901,-189,1,-1.8191300246504896,2776.9803276713087,0.001314,False,,False,,,,,32
3041.199,2.9240362219998133,-0.942138671875,0.331787109375,0.020751953125,9.49618320610687,-2.015267175572519,3.236641221374046,4901,-189,1,-1.8191300246504896,2776.9803276713087,0.001314,False,,False,,,,,32
3041.204,2.9260366049998083,-0.942138671875,0.28515625,0.02783203125,10.076335877862595,-4.0,1.1908396946564885,4861,-176,0,-1.9180069777754896,2774.5922865059947,0.0,False,,False,,,,,32
3041.204,2.928038543999719,-0.942138671875,0.28515625,0.02783203125,10.076335877862595,-4.0,1.1908396946564885,4861,-176,0,-1.9180069777754896,2774.5922865059947,0.0,False,,False,,,,,32
3041.204,2.930040259999714,-0.942138671875,0.28515625,0.02783203125,10.076335877862595,-4.0,1.1908396946564885,4861,-176,0,-1.9180069777754896,2774.5922865059947,0.0,False,,False,,,,,32
3041.2090000000003,2.932041568999921,-0.96240234375,0.26806640625,0.02587890625,10.015267175572518,-5.374045801526718,0.21374045801526717,4826,-155,-5,-2.0045243117598646,2772.485305069772,-0.0065699999999999995,False,,False,,,,,32
3041.2090000000003,2.934044488999916,-0.96240234375,0.26806640625,0.02587890625,10.015267175572518,-5.374045801526718,0.21374045801526717,4826,-155,-5,-2.0045243117598646,2772.485305069772,-0.0065699999999999995,False,,False,,,,,32
3041.214,2.9360449269997844,-0.94775390625,0.30224609375,0.014892578125,7.908396946564885,-3.5725190839694654,1.465648854961832,4789,-166,0,-2.0959854934004896,2770.665630995446,0.0,False,,False,,,,,32
3041.214,2.9380474209997374,-0.94775390625,0.30224609375,0.014892578125,7.908396946564885,-3.5725190839694654,1.465648854961832,4789,-166,0,-2.0959854934004896,2770.665630995446,0.0,False,,False,,,,,32
3041.214,2.9400491559999864,-0.94775390625,0.30224609375,0.014892578125,7.908396946564885,-3.5725190839694654,1.465648854961832,4789,-166,0,-2.0959854934004896,2770.665630995446,0.0,False,,False,,,,,32
3041.219,2.942049427999791,-0.923828125,0.2919921875,0.016845703125,7.511450381679389,-5.923664122137405,0.4580152671755725,4749,-174,-1,-2.1948624465254896,2769.109265485181,-0.001314,False,,False,,,,,32
3041.219,2.9440524959995855,-0.923828125,0.2919921875,0.016845703125,7.511450381679389,-5.923664122137405,0.4580152671755725,4749,-174,-1,-2.1948624465254896,2769.109265485181,-0.001314,False,,False,,,,,32
3041.224,2.946052786999644,-0.8994140625,0.30615234375,0.015869140625,8.335877862595419,-7.022900763358779,0.6412213740458015,4705,-196,-5,-2.3036270949629896,2767.7743976632473,-0.0065699999999999995,False,,False,,,,,32
3041.224,2.9480540029999247,-0.8994140625,0.30615234375,0.015869140625,8.335877862595419,-7.022900763358779,0.6412213740458015,4705,-196,-5,-2.3036270949629896,2767.7743976632473,-0.0065699999999999995,False,,False,,,,,32
3041.224,2.9500548859996343,-0.8994140625,0.30615234375,0.015869140625,8.335877862595419,-7.022900763358779,0.6412213740458015,4705,-196,-5,-2.3036270949629896,2767.7743976632473,-0.0065699999999999995,False,,False,,,,,32
3041.2290000000003,2.952056638999693,-0.923095703125,0.336669921875,0.02294921875,8.427480916030534,-5.251908396946565,2.3206106870229006,4659,-207,0,-2.4173355910567396,2766.621024951161,0.0,False,,False,,,,,32
3041.2290000000003,2.9540595589996883,-0.923095703125,0.336669921875,0.02294921875,8.427480916030534,-5.251908396946565,2.3206106870229006,4659,-207,0,-2.4173355910567396,2766.621024951161,0.0,False,,False,,,,,32
3041.234,2.956059441999969,-0.884765625,0.31103515625,0.00244140625,8.122137404580153,-6.748091603053435,2.2900763358778624,4606,-229,-2,-2.5483475539473646,2765.609447647763,-0.002628,False,,False,,,,,32
3041.234,2.9580609179997737,-0.884765625,0.31103515625,0.00244140625,8.122137404580153,-6.748091603053435,2.2900763358778624,4606,-229,-2,-2.5483475539473646,2765.609447647763,-0.002628,False,,False,,,,,32
3041.234,2.9600624679997054,-0.884765625,0.31103515625,0.00244140625,8.122137404580153,-6.748091603053435,2.2900763358778624,4606,-229,-2,-2.5483475539473646,2765.609447647763,-0.002628,False,,False,,,,,32
3041.239,2.9620642769996266,-0.888671875,0.318359375,0.01025390625,6.65648854961832,-5.465648854961832,2.4732824427480917,4548,-253,7,-2.6917191359786146,2764.6936327154385,0.009198,False,,False,,,,,32
3041.239,2.9640665299998545,-0.888671875,0.318359375,0.01025390625,6.65648854961832,-5.465648854961832,2.4732824427480917,4548,-253,7,-2.6917191359786146,2764.6936327154385,0.009198,False,,False,,,,,32
3041.244,2.9660664129996803,-0.884765625,0.305419921875,-0.0029296875,10.99236641221374,-6.015267175572519,1.7709923664122136,4493,-242,8,-2.8276749465254896,2763.8461883838577,0.010512,False,,False,,,,,32
3041.244,2.9680689629999506,-0.884765625,0.305419921875,-0.0029296875,10.99236641221374,-6.015267175572519,1.7709923664122136,4493,-242,8,-2.8276749465254896,2763.8461883838577,0.010512,False,,False,,,,,32
3041.244,2.9700694939997447,-0.884765625,0.305419921875,-0.0029296875,10.99236641221374,-6.015267175572519,1.7709923664122136,4493,-242,8,-2.8276749465254896,2763.8461883838577,0.010512,False,,False,,,,,32
3041.2490000000003,2.9720719509996343,-0.898193359375,0.30078125,0.00146484375,11.66412213740458,-5.2824427480916025,0.732824427480916,4440,-234,0,-2.9586869094161146,2763.0736308701785,0.0,False,,False,,,,,32
3041.2490000000003,2.9740778149998732,-0.898193359375,0.30078125,0.00146484375,11.66412213740458,-5.2824427480916025,0.732824427480916,4440,-234,0,-2.9586869094161146,2763.0736308701785,0.0,False,,False,,,,,32
3041.254,2.9760744939999313,-0.916259765625,0.310546875,0.007080078125,11.938931297709923,-5.6183206106870225,1.3435114503816794,4387,-232,-4,-3.0896988723067396,2762.387492585511,-0.005256,False,,False,,,,,32
3041.254,2.978076413999588,-0.916259765625,0.310546875,0.007080078125,11.938931297709923,-5.6183206106870225,1.3435114503816794,4387,-232,-4,-3.0896988723067396,2762.387492585511,-0.005256,False,,False,,,,,32
3041.254,2.9800775749999957,-0.916259765625,0.310546875,0.007080078125,11.938931297709923,-5.6183206106870225,1.3435114503816794,4387,-232,-4,-3.0896988723067396,2762.387492585511,-0.005256,False,,False,,,,,32
3041.259,2.9820792729997265,-0.89306640625,0.273681640625,-0.00146484375,11.84732824427481,-6.198473282442748,0.732824427480916,4333,-241,-1,-3.2231827590254896,2761.7854332961338,-0.001314,False,,False,,,,,32
3041.259,2.9840811369999756,-0.89306640625,0.273681640625,-0.00146484375,11.84732824427481,-6.198473282442748,0.732824427480916,4333,-241,-1,-3.2231827590254896,2761.7854332961338,-0.001314,False,,False,,,,,32
3041.264,2.986082019999685,-0.8955078125,0.333740234375,0.027099609375,7.511450381679389,-4.6106870229007635,2.6564885496183206,4269,-278,-1,-3.3813858840254896,2761.240999215954,-0.001314,False,,False,,,,,32
3041.264,2.9880832740000187,-0.8955078125,0.333740234375,0.027099609375,7.511450381679389,-4.6106870229007635,2.6564885496183206,4269,-278,-1,-3.3813858840254896,2761.240999215954,-0.001314,False,,False,,,,,32
3041.264,2.990085471999919,-0.8955078125,0.333740234375,0.027099609375,7.511450381679389,-4.6106870229007635,2.6564885496183206,4269,-278,-1,-3.3813858840254896,2761.240999215954,-0.001314,False,,False,,,,,32
3041.2690000000002,2.9920862429999033,-0.87060546875,0.32275390625,0.013671875,7.603053435114504,-5.099236641221374,3.0839694656488548,4202,-299,-6,-3.5470047805098646,2760.7097228700263,-0.007884,False,,False,,,,,32
3041.2690000000002,2.9940887009997823,-0.87060546875,0.32275390625,0.013671875,7.603053435114504,-5.099236641221374,3.0839694656488548,4202,-299,-6,-3.5470047805098646,2760.7097228700263,-0.007884,False,,False,,,,,32
3041.274,2.9960889719995976,-0.86767578125,0.340087890625,0.013427734375,7.694656488549618,-4.641221374045801,4.0,4128,-333,-5,-3.7299271437911146,2760.1559767977396,-0.0065699999999999995,False,,False,,,,,32
3041.274,2.9980907259996457,-0.86767578125,0.340087890625,0.013427734375,7.694656488549618,-4.641221374045801,4.0,4128,-333,-5,-3.7299271437911146,2760.1559767977396,-0.0065699999999999995,False,,False,,,,,32
3041.274,3.000091461000011,-0.86767578125,0.340087890625,0.013427734375,7.694656488549618,-4.641221374045801,4.0,4128,-333,-5,-3.7299271437911146,2760.1559767977396,-0.0065699999999999995,False,,False,,,,,32
3041.279,3.002093009999953,-0.86669921875,0.334228515625,0.010498046875,7.877862595419847,-4.67175572519084,4.0,4050,-346,-6,-3.9227372023848646,2759.553840863894,-0.007884,False,,False,,,,,32
3041.279,3.004095670999959,-0.86669921875,0.334228515625,0.010498046875,7.877862595419847,-4.67175572519084,4.0,4050,-346,-6,-3.9227372023848646,2759.553840863894,-0.007884,False,,False,,,,,32
3041.284,3.006095627999912,-0.88916015625,0.3154296875,0.00341796875,11.633587786259541,-4.916030534351145,3.1755725190839694,3974,-335,1,-4.110603413322365,2758.8966402490933,0.001314,False,,False,,,,,32
3041.284,3.0080976409999494,-0.88916015625,0.3154296875,0.00341796875,11.633587786259541,-4.916030534351145,3.1755725190839694,3974,-335,1,-4.110603413322365,2758.8966402490933,0.001314,False,,False,,,,,32
3041.284,3.0100990789997013,-0.88916015625,0.3154296875,0.00341796875,11.633587786259541,-4.916030534351145,3.1755725190839694,3974,-335,1,-4.110603413322365,2758.8966402490933,0.001314,False,,False,,,,,32
3041.289,3.01210046199958,-0.908447265625,0.310546875,0.0146484375,12.030534351145038,-5.221374045801526,3.236641221374046,3897,-333,1,-4.30094154808799,2758.201070673964,0.001314,False,,False,,,,,32
3041.289,3.014104011999734,-0.908447265625,0.310546875,0.0146484375,12.030534351145038,-5.221374045801526,3.236641221374046,3897,-333,1,-4.30094154808799,2758.201070673964,0.001314,False,,False,,,,,32
3041.294,3.0161037649995706,-0.9091796875,0.31494140625,0.019775390625,9.404580152671755,-4.854961832061068,4.702290076335878,3814,-361,1,-4.506111225822365,2757.4727128110635,0.001314,False,,False,,,,,32
3041.294,3.01810561100001,-0.9091796875,0.31494140625,0.019775390625,9.404580152671755,-4.854961832061068,4.702290076335878,3814,-361,1,-4.506111225822365,2757.4727128110635,0.001314,False,,False,,,,,32
3041.294,3.0201072719996773,-0.9091796875,0.31494140625,0.019775390625,9.404580152671755,-4.854961832061068,4.702290076335878,3814,-361,1,-4.506111225822365,2757.4727128110635,0.001314,False,,False,,,,,32
3041.299,3.0221082099997147,-0.900634765625,0.3017578125,0.013427734375,7.206106870229007,-4.33587786259542,4.9465648854961835,3729,-381,4,-4.71622475121299,2756.7005991544993,0.005256,False,,False,,,,,32
3041.299,3.0241126669998266,-0.900634765625,0.3017578125,0.013427734375,7.206106870229007,-4.33587786259542,4.9465648854961835,3729,-381,4,-4.71622475121299,2756.7005991544993,0.005256,False,,False,,,,,32
3041.304,3.0261105319996204,-0.88623046875,0.3193359375,0.013671875,8.15267175572519,-5.221374045801526,5.83206106870229,3638,-397,6,-4.941169819572365,2755.874391281798,0.007884,False,,False,,,,,32
3041.304,3.0281129889999647,-0.88623046875,0.3193359375,0.013671875,8.15267175572519,-5.221374045801526,5.83206106870229,3638,-397,6,-4.941169819572365,2755.874391281798,0.007884,False,,False,,,,,32
3041.304,3.0301143719998436,-0.88623046875,0.3193359375,0.013671875,8.15267175572519,-5.221374045801526,5.83206106870229,3638,-397,6,-4.941169819572365,2755.874391281798,0.007884,False,,False,,,,,32
3041.309,3.03211556999986,-0.90673828125,0.3134765625,0.012451171875,11.114503816793892,-6.137404580152672,5.251908396946565,3550,-381,5,-5.158699116447365,2754.995170224289,0.0065699999999999995,False,,False,,,,,32
3041.309,3.0341194339998765,-0.90673828125,0.3134765625,0.012451171875,11.114503816793892,-6.137404580152672,5.251908396946565,3550,-381,5,-5.158699116447365,2754.995170224289,0.0065699999999999995,False,,False,,,,,32
3041.314,3.036118353999882,-0.901611328125,0.294189453125,0.009033203125,11.877862595419847,-6.290076335877862,5.2824427480916025,3465,-374,1,-5.36881264183799,2754.089676049194,0.001314,False,,False,,,,,32
3041.314,3.0381199039998137,-0.901611328125,0.294189453125,0.009033203125,11.877862595419847,-6.290076335877862,5.2824427480916025,3465,-374,1,-5.36881264183799,2754.089676049194,0.001314,False,,False,,,,,32
3041.314,3.040121693999936,-0.901611328125,0.294189453125,0.009033203125,11.877862595419847,-6.290076335877862,5.2824427480916025,3465,-374,1,-5.36881264183799,2754.089676049194,0.001314,False,,False,,,,,32
3041.319,3.042123059000005,-0.913330078125,0.286865234375,0.014404296875,11.17557251908397,-6.809160305343511,5.343511450381679,3378,-381,1,-5.583870014884865,2753.187837678271,0.001314,False,,False,,,,,32
3041.319,3.0441267940000216,-0.913330078125,0.286865234375,0.014404296875,11.17557251908397,-6.809160305343511,5.343511450381679,3378,-381,1,-5.583870014884865,2753.187837678271,0.001314,False,,False,,,,,32
3041.324,3.0461257689999,-0.915283203125,0.283935546875,0.014404296875,7.786259541984733,-5.6183206106870225,5.770992366412213,3287,-398,0,-5.80881508324424,2752.293172043212,0.0,False,,False,,,,,32
3041.324,3.0481279669998003,-0.915283203125,0.283935546875,0.014404296875,7.786259541984733,-5.6183206106870225,5.770992366412213,3287,-398,0,-5.80881508324424,2752.293172043212,0.0,False,,False,,,,,32
3041.324,3.0501292389999435,-0.915283203125,0.283935546875,0.014404296875,7.786259541984733,-5.6183206106870225,5.770992366412213,3287,-398,0,-5.80881508324424,2752.293172043212,0.0,False,,False,,,,,32
3041.329,3.052130343999579,-0.92041015625,0.30810546875,0.00927734375,7.419847328244274,-4.580152671755725,6.3206106870229,3196,-402,-8,-6.033760151603615,2751.399567024405,-0.010512,False,,False,,,,,32
3041.329,3.0541335599996273,-0.92041015625,0.30810546875,0.00927734375,7.419847328244274,-4.580152671755725,6.3206106870229,3196,-402,-8,-6.033760151603615,2751.399567024405,-0.010512,False,,False,,,,,32
3041.3340000000003,3.0561339249998127,-0.929443359375,0.30810546875,0.005859375,8.854961832061068,-5.526717557251908,5.404580152671755,3109,-384,-6,-6.24881752465049,2750.5197953451757,-0.007884,False,,False,,,,,32
3041.3340000000003,3.0581350119996387,-0.929443359375,0.30810546875,0.005859375,8.854961832061068,-5.526717557251908,5.404580152671755,3109,-384,-6,-6.24881752465049,2750.5197953451757,-0.007884,False,,False,,,,,32
3041.3340000000003,3.0601362089996655,-0.929443359375,0.30810546875,0.005859375,8.854961832061068,-5.526717557251908,5.404580152671755,3109,-384,-6,-6.24881752465049,2750.5197953451757,-0.007884,False,,False,,,,,32
3041.339,3.0621377029997348,-0.938720703125,0.306396484375,0.009033203125,10.900763358778626,-4.7328244274809155,5.404580152671755,3022,-383,-3,-6.463874897697365,2749.678673729568,-0.003942,False,,False,,,,,32
3041.339,3.0641407529997196,-0.938720703125,0.306396484375,0.009033203125,10.900763358778626,-4.7328244274809155,5.404580152671755,3022,-383,-3,-6.463874897697365,2749.678673729568,-0.003942,False,,False,,,,,32
3041.344,3.0661403029998837,-0.94677734375,0.286376953125,0.012451171875,10.167938931297709,-5.6183206106870225,5.740458015267175,2937,-373,-1,-6.67398842308799,2748.892837362377,-0.001314,False,,False,,,,,32
3041.344,3.068142314999932,-0.94677734375,0.286376953125,0.012451171875,10.167938931297709,-5.6183206106870225,5.740458015267175,2937,-373,-1,-6.67398842308799,2748.892837362377,-0.001314,False,,False,,,,,32
3041.344,3.070143975999599,-0.94677734375,0.286376953125,0.012451171875,10.167938931297709,-5.6183206106870225,5.740458015267175,2937,-373,-1,-6.67398842308799,2748.892837362377,-0.001314,False,,False,,,,,32
3041.349,3.072145432999605,-0.953125,0.268310546875,0.01220703125,8.458015267175572,-5.404580152671755,5.557251908396946,2852,-377,-1,-6.884101948478615,2748.1718310026895,-0.001314,False,,False,,,,,32
3041.349,3.0741482419998647,-0.953125,0.268310546875,0.01220703125,8.458015267175572,-5.404580152671755,5.557251908396946,2852,-377,-1,-6.884101948478615,2748.1718310026895,-0.001314,False,,False,,,,,32
3041.3540000000003,3.07614825499968,-0.9658203125,0.28515625,0.017822265625,7.572519083969465,-4.9465648854961835,6.229007633587786,2766,-375,4,-7.096687397697365,2747.517334660617,0.005256,False,,False,,,,,32
3041.3540000000003,3.0781496929998866,-0.9658203125,0.28515625,0.017822265625,7.572519083969465,-4.9465648854961835,6.229007633587786,2766,-375,4,-7.096687397697365,2747.517334660617,0.005256,False,,False,,,,,32
3041.3540000000003,3.0801507609999135,-0.9658203125,0.28515625,0.017822265625,7.572519083969465,-4.9465648854961835,6.229007633587786,2766,-375,4,-7.096687397697365,2747.517334660617,0.005256,False,,False,,,,,32
3041.359,3.082151884999803,-0.947265625,0.2900390625,0.007080078125,6.473282442748092,-4.9465648854961835,6.106870229007633,2682,-369,4,-7.304328999259865,2746.928000795036,0.005256,False,,False,,,,,32
3041.359,3.0841545270000097,-0.947265625,0.2900390625,0.007080078125,6.473282442748092,-4.9465648854961835,6.106870229007633,2682,-369,4,-7.304328999259865,2746.928000795036,0.005256,False,,False,,,,,32
3041.364,3.0861555029996453,-0.95654296875,0.29638671875,-0.00048828125,8.885496183206106,-4.9465648854961835,5.190839694656488,2601,-347,3,-7.50455482933799,2746.4125003032987,0.003942,False,,False,,,,,32
3041.364,3.088156885999979,-0.95654296875,0.29638671875,-0.00048828125,8.885496183206106,-4.9465648854961835,5.190839694656488,2601,-347,3,-7.50455482933799,2746.4125003032987,0.003942,False,,False,,,,,32
3041.364,3.0901588609999635,-0.95654296875,0.29638671875,-0.00048828125,8.885496183206106,-4.9465648854961835,5.190839694656488,2601,-347,3,-7.50455482933799,2746.4125003032987,0.003942,False,,False,,,,,32
3041.369,3.092160003999652,-0.9697265625,0.296630859375,0.011474609375,10.229007633587786,-5.190839694656488,4.641221374045801,2524,-337,0,-7.694892964103615,2745.9877657208995,0.0,False,,False,,,,,32
3041.369,3.094162552999933,-0.9697265625,0.296630859375,0.011474609375,10.229007633587786,-5.190839694656488,4.641221374045801,2524,-337,0,-7.694892964103615,2745.9877657208995,0.0,False,,False,,,,,32
3041.3740000000003,3.096163972999875,-0.975341796875,0.290283203125,0.015869140625,9.923664122137405,-4.488549618320611,5.007633587786259,2448,-333,-3,-7.882759175041115,2745.6666577549995,-0.003942,False,,False,,,,,32
3041.3740000000003,3.098165281999627,-0.975341796875,0.290283203125,0.015869140625,9.923664122137405,-4.488549618320611,5.007633587786259,2448,-333,-3,-7.882759175041115,2745.6666577549995,-0.003942,False,,False,,,,,32
3041.3740000000003,3.100166849999823,-0.975341796875,0.290283203125,0.015869140625,9.923664122137405,-4.488549618320611,5.007633587786259,2448,-333,-3,-7.882759175041115,2745.6666577549995,-0.003942,False,,False,,,,,32
3041.379,3.1021685299997444,-0.9765625,0.275146484375,0.014892578125,8.51908396946565,-4.885496183206107,4.6106870229007635,2374,-324,0,-8.065681538322364,2745.451279928393,0.0,False,,False,,,,,32
3041.379,3.104170745999909,-0.9765625,0.275146484375,0.014892578125,8.51908396946565,-4.885496183206107,4.6106870229007635,2374,-324,0,-8.065681538322364,2745.451279928393,0.0,False,,False,,,,,32
3041.384,3.1061713139997664,-0.986572265625,0.298095703125,0.0107421875,5.526717557251908,-3.5114503816793894,6.412213740458015,2297,-340,0,-8.25601967308799,2745.3311185632006,0.0,False,,False,,,,,32
3041.384,3.108173085999624,-0.986572265625,0.298095703125,0.0107421875,5.526717557251908,-3.5114503816793894,6.412213740458015,2297,-340,0,-8.25601967308799,2745.3311185632006,0.0,False,,False,,,,,32
3041.389,3.1101748579999366,-0.99853515625,0.302978515625,0.0078125,5.709923664122138,-3.9083969465648853,5.862595419847328,2222,-329,0,-8.441413960197364,2745.2888304079415,0.0,False,,False,,,,,32
3041.389,3.1121758709996357,-0.99853515625,0.302978515625,0.0078125,5.709923664122138,-3.9083969465648853,5.862595419847328,2222,-329,0,-8.441413960197364,2745.2888304079415,0.0,False,,False,,,,,32
3041.389,3.1141789759999483,-0.99853515625,0.302978515625,0.0078125,5.709923664122138,-3.9083969465648853,5.862595419847328,2222,-329,0,-8.441413960197364,2745.2888304079415,0.0,False,,False,,,,,32
3041.3940000000002,3.1161803219997637,-1.011962890625,0.310791015625,0.00341796875,7.206106870229007,-2.9618320610687023,6.137404580152672,2150,-317,0,-8.619392475822364,2745.3195109078465,0.0,False,,False,,,,,32
3041.3940000000002,3.118181352999727,-1.011962890625,0.310791015625,0.00341796875,7.206106870229007,-2.9618320610687023,6.137404580152672,2150,-317,0,-8.619392475822364,2745.3195109078465,0.0,False,,False,,,,,32
3041.399,3.1201823649998914,-1.0107421875,0.30712890625,0.000732421875,8.427480916030534,-3.541984732824427,5.648854961832061,2084,-287,3,-8.782539448478614,2745.4359020262173,0.003942,False,,False,,,,,32
3041.399,3.122183692999897,-1.0107421875,0.30712890625,0.000732421875,8.427480916030534,-3.541984732824427,5.648854961832061,2084,-287,3,-8.782539448478614,2745.4359020262173,0.003942,False,,False,,,,,32
3041.399,3.124186890999681,-1.0107421875,0.30712890625,0.000732421875,8.427480916030534,-3.541984732824427,5.648854961832061,2084,-287,3,-8.782539448478614,2745.4359020262173,0.003942,False,,False,,,,,32
3041.404,3.126188087999708,-1.007568359375,0.283935546875,-0.00146484375,5.190839694656488,-2.564885496183206,6.717557251908397,2018,-287,0,-8.945686421134864,2745.6492199388485,0.0,False,,False,,,,,32
3041.404,3.1281892119995973,-1.007568359375,0.283935546875,-0.00146484375,5.190839694656488,-2.564885496183206,6.717557251908397,2018,-287,0,-8.945686421134864,2745.6492199388485,0.0,False,,False,,,,,32
3041.409,3.1301912429998993,-1.012939453125,0.274169921875,-0.003173828125,3.2061068702290076,-1.648854961832061,6.809160305343511,1950,-299,1,-9.113777241447364,2745.9477549227468,0.001314,False,,False,,,,,32
3041.409,3.132193236999683,-1.012939453125,0.274169921875,-0.003173828125,3.2061068702290076,-1.648854961832061,6.809160305343511,1950,-299,1,-9.113777241447364,2745.9477549227468,0.001314,False,,False,,,,,32
3041.409,3.13419574999989,-1.012939453125,0.274169921875,-0.003173828125,3.2061068702290076,-1.648854961832061,6.809160305343511,1950,-299,1,-9.113777241447364,2745.9477549227468,0.001314,False,,False,,,,,32
3041.414,3.136195576999853,-1.015869140625,0.303955078125,-0.0078125,1.7404580152671756,-0.24427480916030533,7.694656488549618,1878,-313,3,-9.291755757072364,2746.2989832463095,0.003942,False,,False,,,,,32
3041.414,3.1381972009999117,-1.015869140625,0.303955078125,-0.0078125,1.7404580152671756,-0.24427480916030533,7.694656488549618,1878,-313,3,-9.291755757072364,2746.2989832463095,0.003942,False,,False,,,,,32
3041.419,3.1401991949996955,-1.0087890625,0.326171875,-0.010009765625,0.3053435114503817,0.2748091603053435,7.7251908396946565,1810,-303,2,-9.459846577384864,2746.678494294381,0.002628,False,,False,,,,,32
3041.419,3.142200985999807,-1.0087890625,0.326171875,-0.010009765625,0.3053435114503817,0.2748091603053435,7.7251908396946565,1810,-303,2,-9.459846577384864,2746.678494294381,0.002628,False,,False,,,,,32
3041.419,3.1442051649996756,-1.0087890625,0.326171875,-0.010009765625,0.3053435114503817,0.2748091603053435,7.7251908396946565,1810,-303,2,-9.459846577384864,2746.678494294381,0.002628,False,,False,,,,,32
3041.424,3.1462038069998925,-1.02001953125,0.34423828125,-0.01220703125,4.061068702290076,1.129770992366412,7.0534351145038165,1745,-282,-1,-9.62052162621299,2747.088718777943,-0.001314,False,,False,,,,,32
3041.424,3.148205763999613,-1.02001953125,0.34423828125,-0.01220703125,4.061068702290076,1.129770992366412,7.0534351145038165,1745,-282,-1,-9.62052162621299,2747.088718777943,-0.001314,False,,False,,,,,32
3041.429,3.1502070179999464,-1.00732421875,0.32080078125,-0.003173828125,5.404580152671755,-0.3053435114503817,6.3206106870229,1689,-247,-5,-9.75894936058799,2747.552732754693,-0.0065699999999999995,False,,False,,,,,32
3041.429,3.152208418999635,-1.00732421875,0.32080078125,-0.003173828125,5.404580152671755,-0.3053435114503817,6.3206106870229,1689,-247,-5,-9.75894936058799,2747.552732754693,-0.0065699999999999995,False,,False,,,,,32
3041.429,3.1542113759996937,-1.00732421875,0.32080078125,-0.003173828125,5.404580152671755,-0.3053435114503817,6.3206106870229,1689,-247,-5,-9.75894936058799,2747.552732754693,-0.0065699999999999995,False,,False,,,,,32
3041.434,3.1562119999998686,-1.017333984375,0.286865234375,-0.000244140625,5.709923664122138,-0.6106870229007634,4.793893129770992,1640,-218,0,-9.880073628166114,2748.105190380567,0.0,False,,False,,,,,32
3041.434,3.1582129199996416,-1.017333984375,0.286865234375,-0.000244140625,5.709923664122138,-0.6106870229007634,4.793893129770992,1640,-218,0,-9.880073628166114,2748.105190380567,0.0,False,,False,,,,,32
3041.439,3.1602142289998483,-1.04638671875,0.329833984375,0.014404296875,3.0839694656488548,1.4351145038167938,6.229007633587786,1587,-225,4,-10.01108559105674,2748.7577076844527,0.005256,False,,False,,,,,32
3041.439,3.162215981999907,-1.04638671875,0.329833984375,0.014404296875,3.0839694656488548,1.4351145038167938,6.229007633587786,1587,-225,4,-10.01108559105674,2748.7577076844527,0.005256,False,,False,,,,,32
3041.439,3.164218401999733,-1.04638671875,0.329833984375,0.014404296875,3.0839694656488548,1.4351145038167938,6.229007633587786,1587,-225,4,-10.01108559105674,2748.7577076844527,0.005256,False,,False,,,,,32
3041.444,3.166219080999781,-0.999755859375,0.309814453125,0.0029296875,-0.183206106870229,1.2519083969465647,5.923664122137405,1536,-232,1,-10.137153706291114,2749.486330780446,0.001314,False,,False,,,,,32
3041.444,3.168219797999882,-0.999755859375,0.309814453125,0.0029296875,-0.183206106870229,1.2519083969465647,5.923664122137405,1536,-232,1,-10.137153706291114,2749.486330780446,0.001314,False,,False,,,,,32
3041.449,3.170222050999655,-1.0341796875,0.372802734375,0.01025390625,0.366412213740458,2.6259541984732824,7.0534351145038165,1484,-228,1,-10.265693745353614,2750.2663223808768,0.001314,False,,False,,,,,32
3041.449,3.172223507999661,-1.0341796875,0.372802734375,0.01025390625,0.366412213740458,2.6259541984732824,7.0534351145038165,1484,-228,1,-10.265693745353614,2750.2663223808768,0.001314,False,,False,,,,,32
3041.449,3.1742255949998253,-1.0341796875,0.372802734375,0.01025390625,0.366412213740458,2.6259541984732824,7.0534351145038165,1484,-228,1,-10.265693745353614,2750.2663223808768,0.001314,False,,False,,,,,32
3041.454,3.176225625999905,-0.99072265625,0.353515625,-0.012451171875,1.0076335877862594,1.7099236641221374,7.755725190839694,1433,-222,1,-10.39176186058799,2751.0798097292877,0.001314,False,,False,,,,,32
3041.454,3.1782269899999847,-0.99072265625,0.353515625,-0.012451171875,1.0076335877862594,1.7099236641221374,7.755725190839694,1433,-222,1,-10.39176186058799,2751.0798097292877,0.001314,False,,False,,,,,32
3041.4590000000003,3.1802288359999693,-0.994140625,0.347412109375,-0.01708984375,0.5190839694656488,2.687022900763359,7.236641221374046,1383,-209,0,-10.51535805199424,2751.913135343267,0.0,False,,False,,,,,32
3041.4590000000003,3.182230163999975,-0.994140625,0.347412109375,-0.01708984375,0.5190839694656488,2.687022900763359,7.236641221374046,1383,-209,0,-10.51535805199424,2751.913135343267,0.0,False,,False,,,,,32
3041.4590000000003,3.184233972999664,-0.994140625,0.347412109375,-0.01708984375,0.5190839694656488,2.687022900763359,7.236641221374046,1383,-209,0,-10.51535805199424,2751.913135343267,0.0,False,,False,,,,,32
3041.464,3.1862331149995953,-0.999267578125,0.32177734375,-0.0263671875,5.343511450381679,1.282442748091603,5.465648854961832,1342,-172,0,-10.616706928947364,2752.772483080199,0.0,False,,False,,,,,32
3041.464,3.1882349979996434,-0.999267578125,0.32177734375,-0.0263671875,5.343511450381679,1.282442748091603,5.465648854961832,1342,-172,0,-10.616706928947364,2752.772483080199,0.0,False,,False,,,,,32
3041.469,3.1902372699996704,-1.032470703125,0.3515625,-0.010498046875,6.5038167938931295,2.229007633587786,6.381679389312977,1310,-143,2,-10.695808491447364,2753.691301043323,0.002628,False,,False,,,,,32
3041.469,3.192238411999824,-1.032470703125,0.3515625,-0.010498046875,6.5038167938931295,2.229007633587786,6.381679389312977,1310,-143,2,-10.695808491447364,2753.691301043323,0.002628,False,,False,,,,,32
3041.469,3.194241905999661,-1.032470703125,0.3515625,-0.010498046875,6.5038167938931295,2.229007633587786,6.381679389312977,1310,-143,2,-10.695808491447364,2753.691301043323,0.002628,False,,False,,,,,32
3041.474,3.1962426409995714,-1.005126953125,0.294921875,-0.017822265625,5.251908396946565,0.5801526717557252,4.458015267175572,1282,-117,5,-10.765022358634864,2754.7021013527433,0.0065699999999999995,False,,False,,,,,32
3041.474,3.1982442089997676,-1.005126953125,0.294921875,-0.017822265625,5.251908396946565,0.5801526717557252,4.458015267175572,1282,-117,5,-10.765022358634864,2754.7021013527433,0.0065699999999999995,False,,False,,,,,32
3041.4790000000003,3.2002457399999003,-1.04150390625,0.30712890625,-0.0068359375,5.526717557251908,1.8931297709923662,4.396946564885496,1261,-87,5,-10.81693275902549,2755.8182365066323,0.0065699999999999995,False,,False,,,,,32
3041.4790000000003,3.2022484379999696,-1.04150390625,0.30712890625,-0.0068359375,5.526717557251908,1.8931297709923662,4.396946564885496,1261,-87,5,-10.81693275902549,2755.8182365066323,0.0065699999999999995,False,,False,,,,,32
3041.4790000000003,3.204250561999743,-1.04150390625,0.30712890625,-0.0068359375,5.526717557251908,1.8931297709923662,4.396946564885496,1261,-87,5,-10.81693275902549,2755.8182365066323,0.0065699999999999995,False,,False,,,,,32
3041.484,3.206250314999579,-0.9873046875,0.323486328125,-0.01123046875,1.9236641221374045,2.2900763358778624,4.702290076335878,1238,-103,-2,-10.873787007072364,2757.035034982913,-0.002628,False,,False,,,,,32
3041.484,3.2082516799996483,-0.9873046875,0.323486328125,-0.01123046875,1.9236641221374045,2.2900763358778624,4.702290076335878,1238,-103,-2,-10.873787007072364,2757.035034982913,-0.002628,False,,False,,,,,32
3041.489,3.2102537659998234,-0.9951171875,0.335205078125,-0.015869140625,3.8167938931297707,2.4122137404580153,4.030534351145038,1222,-67,1,-10.913337788322364,2758.336384562042,0.001314,False,,False,,,,,32
3041.489,3.212255241999628,-0.9951171875,0.335205078125,-0.015869140625,3.8167938931297707,2.4122137404580153,4.030534351145038,1222,-67,1,-10.913337788322364,2758.336384562042,0.001314,False,,False,,,,,32
3041.489,3.2142577539998456,-0.9951171875,0.335205078125,-0.015869140625,3.8167938931297707,2.4122137404580153,4.030534351145038,1222,-67,1,-10.913337788322364,2758.336384562042,0.001314,False,,False,,,,,32
3041.494,3.2162597489996188,-0.974609375,0.35205078125,-0.021728515625,6.442748091603053,2.259541984732824,4.213740458015267,1209,-55,1,-10.94547279808799,2759.7165240397967,0.001314,False,,False,,,,,32
3041.494,3.2182598539998253,-0.974609375,0.35205078125,-0.021728515625,6.442748091603053,2.259541984732824,4.213740458015267,1209,-55,1,-10.94547279808799,2759.7165240397967,0.001314,False,,False,,,,,32
3041.4990000000003,3.2202613479998945,-0.95361328125,0.357421875,-0.02001953125,5.6183206106870225,2.16793893129771,5.6183206106870225,1189,-86,3,-10.99491127465049,2761.153374296534,0.003942,False,,False,,,,,32
3041.4990000000003,3.2222622489998685,-0.95361328125,0.357421875,-0.02001953125,5.6183206106870225,2.16793893129771,5.6183206106870225,1189,-86,3,-10.99491127465049,2761.153374296534,0.003942,False,,False,,,,,32
3041.4990000000003,3.2242650579996734,-0.95361328125,0.357421875,-0.02001953125,5.6183206106870225,2.16793893129771,5.6183206106870225,1189,-86,3,-10.99491127465049,2761.153374296534,0.003942,False,,False,,,,,32
3041.504,3.2262656079997214,-0.92822265625,0.35791015625,-0.0205078125,0.7022900763358778,4.030534351145038,7.3893129770992365,1164,-108,-4,-11.056709370353614,2762.588238455049,-0.005256,False,,False,,,,,32
3041.504,3.2282669909996002,-0.92822265625,0.35791015625,-0.0205078125,0.7022900763358778,4.030534351145038,7.3893129770992365,1164,-108,-4,-11.056709370353614,2762.588238455049,-0.005256,False,,False,,,,,32
3041.509,3.2302683369998704,-0.932373046875,0.39453125,-0.021484375,3.7862595419847325,4.9465648854961835,8.305343511450381,1140,-105,0,-11.116035542228614,2763.9720053388223,0.0,False,,False,,,,,32
3041.509,3.23226921999958,-0.932373046875,0.39453125,-0.021484375,3.7862595419847325,4.9465648854961835,8.305343511450381,1140,-105,0,-11.116035542228614,2763.9720053388223,0.0,False,,False,,,,,32
3041.509,3.234273139999914,-0.932373046875,0.39453125,-0.021484375,3.7862595419847325,4.9465648854961835,8.305343511450381,1140,-105,0,-11.116035542228614,2763.9720053388223,0.0,False,,False,,,,,32
3041.514,3.2362728749999405,-0.90283203125,0.406005859375,-0.021728515625,5.007633587786259,4.6106870229007635,10.015267175572518,1109,-131,7,-11.19266518090049,2765.275043227393,0.009198,False,,False,,,,,32
3041.514,3.2382752019998406,-0.90283203125,0.406005859375,-0.021728515625,5.007633587786259,4.6106870229007635,10.015267175572518,1109,-131,7,-11.19266518090049,2765.275043227393,0.009198,False,,False,,,,,32
3041.5190000000002,3.240275843999825,-0.909423828125,0.360107421875,-0.020263671875,6.412213740458015,2.900763358778626,8.702290076335878,1082,-104,0,-11.259407124259864,2766.4755049911028,0.0,False,,False,,,,,32
3041.5190000000002,3.2422783009997147,-0.909423828125,0.360107421875,-0.020263671875,6.412213740458015,2.900763358778626,8.702290076335878,1082,-104,0,-11.259407124259864,2766.4755049911028,0.0,False,,False,,,,,32
3041.5190000000002,3.244280498999615,-0.909423828125,0.360107421875,-0.020263671875,6.412213740458015,2.900763358778626,8.702290076335878,1082,-104,0,-11.259407124259864,2766.4755049911028,0.0,False,,False,,,,,32
3041.524,3.2462805119998848,-0.923095703125,0.349365234375,-0.017333984375,8.6412213740458,2.8702290076335877,9.923664122137405,1062,-100,0,-11.308845600822364,2767.587025178756,0.0,False,,False,,,,,32
3041.524,3.2482822649999434,-0.923095703125,0.349365234375,-0.017333984375,8.6412213740458,2.8702290076335877,9.923664122137405,1062,-100,0,-11.308845600822364,2767.587025178756,0.0,False,,False,,,,,32
3041.529,3.2502838519999386,-0.92822265625,0.3232421875,-0.0078125,6.870229007633587,1.9541984732824427,9.251908396946565,1035,-115,3,-11.37558754418174,2768.6276783691833,0.003942,False,,False,,,,,32
3041.529,3.252285512999606,-0.92822265625,0.3232421875,-0.0078125,6.870229007633587,1.9541984732824427,9.251908396946565,1035,-115,3,-11.37558754418174,2768.6276783691833,0.003942,False,,False,,,,,32
3041.529,3.2542881360000138,-0.92822265625,0.3232421875,-0.0078125,6.870229007633587,1.9541984732824427,9.251908396946565,1035,-115,3,-11.37558754418174,2768.6276783691833,0.003942,False,,False,,,,,32
3041.534,3.2562883529999453,-0.94677734375,0.31591796875,-0.018798828125,7.755725190839694,1.9236641221374045,8.82442748091603,1016,-90,0,-11.422554096916114,2769.5957178554127,0.0,False,,False,,,,,32
3041.534,3.2582891619999828,-0.94677734375,0.31591796875,-0.018798828125,7.755725190839694,1.9236641221374045,8.82442748091603,1016,-90,0,-11.422554096916114,2769.5957178554127,0.0,False,,False,,,,,32
3041.539,3.260291488999883,-0.9404296875,0.337890625,-0.02099609375,7.3893129770992365,2.4427480916030535,9.923664122137405,992,-112,-1,-11.481880268791114,2770.4961047737584,-0.001314,False,,False,,,,,32
3041.539,3.2622928719997617,-0.9404296875,0.337890625,-0.02099609375,7.3893129770992365,2.4427480916030535,9.923664122137405,992,-112,-1,-11.481880268791114,2770.4961047737584,-0.001314,False,,False,,,,,32
3041.539,3.2642966069997783,-0.9404296875,0.337890625,-0.02099609375,7.3893129770992365,2.4427480916030535,9.923664122137405,992,-112,-1,-11.481880268791114,2770.4961047737584,-0.001314,False,,False,,,,,32
3041.544,3.2662958969999636,-0.943603515625,0.32666015625,-0.0244140625,6.381679389312977,2.4122137404580153,8.732824427480915,966,-102,1,-11.546150288322364,2771.319648529224,0.001314,False,,False,,,,,32
3041.544,3.2682975759998953,-0.943603515625,0.32666015625,-0.0244140625,6.381679389312977,2.4122137404580153,8.732824427480915,966,-102,1,-11.546150288322364,2771.319648529224,0.001314,False,,False,,,,,32
3041.549,3.270298847999584,-0.952392578125,0.339599609375,-0.037353515625,10.442748091603052,2.687022900763359,7.633587786259541,952,-58,3,-11.580757221916114,2772.072301659333,0.003942,False,,False,,,,,32
3041.549,3.2723003979999703,-0.952392578125,0.339599609375,-0.037353515625,10.442748091603052,2.687022900763359,7.633587786259541,952,-58,3,-11.580757221916114,2772.072301659333,0.003942,False,,False,,,,,32
3041.549,3.2743034109998916,-0.952392578125,0.339599609375,-0.037353515625,10.442748091603052,2.687022900763359,7.633587786259541,952,-58,3,-11.580757221916114,2772.072301659333,0.003942,False,,False,,,,,32
3041.554,3.2763032009997914,-0.952392578125,0.3408203125,-0.036865234375,12.67175572519084,1.9236641221374045,6.961832061068702,941,-46,7,-11.60794838402549,2772.7994655821917,0.009198,False,,False,,,,,32
3041.554,3.2783043989998077,-0.952392578125,0.3408203125,-0.036865234375,12.67175572519084,1.9236641221374045,6.961832061068702,941,-46,7,-11.60794838402549,2772.7994655821917,0.009198,False,,False,,,,,32
3041.559,3.280305596999824,-0.9619140625,0.323486328125,-0.02685546875,12.061068702290076,2.1374045801526718,6.687022900763359,933,-43,-8,-11.62772377465049,2773.5323567704763,-0.010512,False,,False,,,,,32
3041.559,3.2823067569997875,-0.9619140625,0.323486328125,-0.02685546875,12.061068702290076,2.1374045801526718,6.687022900763359,933,-43,-8,-11.62772377465049,2773.5323567704763,-0.010512,False,,False,,,,,32
3041.559,3.2843098069997723,-0.9619140625,0.323486328125,-0.02685546875,12.061068702290076,2.1374045801526718,6.687022900763359,933,-43,-8,-11.62772377465049,2773.5323567704763,-0.010512,False,,False,,,,,32
3041.564,3.286309837999852,-0.964599609375,0.324462890625,-0.028076171875,9.770992366412214,4.030534351145038,5.862595419847328,927,-26,-1,-11.64255531761924,2774.2791210731634,-0.001314,False,,False,,,,,32
3041.564,3.2883114619999105,-0.964599609375,0.324462890625,-0.028076171875,9.770992366412214,4.030534351145038,5.862595419847328,927,-26,-1,-11.64255531761924,2774.2791210731634,-0.001314,False,,False,,,,,32
3041.569,3.290313418999631,-0.959228515625,0.340087890625,-0.0302734375,11.877862595419847,3.9083969465648853,4.824427480916031,924,-4,1,-11.649971089103614,2775.044586565375,0.001314,False,,False,,,,,32
3041.569,3.292314597999848,-0.959228515625,0.340087890625,-0.0302734375,11.877862595419847,3.9083969465648853,4.824427480916031,924,-4,1,-11.649971089103614,2775.044586565375,0.001314,False,,False,,,,,32
3041.569,3.2943178890000127,-0.959228515625,0.340087890625,-0.0302734375,11.877862595419847,3.9083969465648853,4.824427480916031,924,-4,1,-11.649971089103614,2775.044586565375,0.001314,False,,False,,,,,32
3041.574,3.296318159999828,-0.959228515625,0.36376953125,-0.032958984375,13.557251908396946,4.305343511450381,5.068702290076335,925,-5,0,-11.64749916527549,2775.8361053105054,0.0,False,,False,,,,,32
3041.574,3.298319357999844,-0.959228515625,0.36376953125,-0.032958984375,13.557251908396946,4.305343511450381,5.068702290076335,925,-5,0,-11.64749916527549,2775.8361053105054,0.0,False,,False,,,,,32
3041.579,3.3003209449998394,-0.9453125,0.35400390625,-0.04150390625,13.404580152671755,3.7862595419847325,4.549618320610687,925,-4,-3,-11.64749916527549,2776.6558738864546,-0.003942,False,,False,,,,,32
3041.579,3.3023219389997394,-0.9453125,0.35400390625,-0.04150390625,13.404580152671755,3.7862595419847325,4.549618320610687,925,-4,-3,-11.64749916527549,2776.6558738864546,-0.003942,False,,False,,,,,32
3041.579,3.304325747999883,-0.9453125,0.35400390625,-0.04150390625,13.404580152671755,3.7862595419847325,4.549618320610687,925,-4,-3,-11.64749916527549,2776.6558738864546,-0.003942,False,,False,,,,,32
3041.5840000000003,3.3063254269995923,-0.9501953125,0.36962890625,-0.035400390625,13.099236641221374,6.229007633587786,4.152671755725191,925,5,0,-11.64749916527549,2777.4909979479585,0.0,False,,False,,,,,32
3041.5840000000003,3.308327272999577,-0.9501953125,0.36962890625,-0.035400390625,13.099236641221374,6.229007633587786,4.152671755725191,925,5,0,-11.64749916527549,2777.4909979479585,0.0,False,,False,,,,,32
3041.589,3.310329007999826,-0.9462890625,0.37939453125,-0.0322265625,14.076335877862595,6.65648854961832,3.7251908396946565,925,4,0,-11.64749916527549,2778.325088623461,0.0,False,,False,,,,,32
3041.589,3.312330168999779,-0.9462890625,0.37939453125,-0.0322265625,14.076335877862595,6.65648854961832,3.7251908396946565,925,4,0,-11.64749916527549,2778.325088623461,0.0,False,,False,,,,,32
3041.589,3.314332495999679,-0.9462890625,0.37939453125,-0.0322265625,14.076335877862595,6.65648854961832,3.7251908396946565,925,4,0,-11.64749916527549,2778.325088623461,0.0,False,,False,,,,,32
3041.594,3.3163327869997374,-0.9453125,0.392578125,-0.029296875,15.81679389312977,7.267175572519084,3.5725190839694654,925,0,-4,-11.64749916527549,2779.146230924957,-0.005256,False,,False,,,,,32
3041.594,3.318333743999574,-0.9453125,0.392578125,-0.029296875,15.81679389312977,7.267175572519084,3.5725190839694654,925,0,-4,-11.64749916527549,2779.146230924957,-0.005256,False,,False,,,,,32
3041.599,3.320335089999844,-0.9384765625,0.387939453125,-0.02685546875,16.793893129770993,7.297709923664121,3.7557251908396947,925,-2,0,-11.64749916527549,2779.9446374208255,0.0,False,,False,,,,,32
3041.599,3.3223374350000086,-0.9384765625,0.387939453125,-0.02685546875,16.793893129770993,7.297709923664121,3.7557251908396947,925,-2,0,-11.64749916527549,2779.9446374208255,0.0,False,,False,,,,,32
3041.599,3.3243392439999297,-0.9384765625,0.387939453125,-0.02685546875,16.793893129770993,7.297709923664121,3.7557251908396947,925,-2,0,-11.64749916527549,2779.9446374208255,0.0,False,,False,,,,,32
3041.6040000000003,3.3263395899998613,-0.93505859375,0.38232421875,-0.029052734375,17.19083969465649,6.8396946564885495,3.7862595419847325,927,3,1,-11.64255531761924,2780.7160246286226,0.001314,False,,False,,,,,32
3041.6040000000003,3.3283407879998776,-0.93505859375,0.38232421875,-0.029052734375,17.19083969465649,6.8396946564885495,3.7862595419847325,927,3,1,-11.64255531761924,2780.7160246286226,0.001314,False,,False,,,,,32
3041.609,3.330342818999725,-0.938232421875,0.3828125,-0.029052734375,17.404580152671755,6.809160305343511,3.847328244274809,925,5,-4,-11.64749916527549,2781.453616909968,-0.005256,False,,False,,,,,32
3041.609,3.332344460999593,-0.938232421875,0.3828125,-0.029052734375,17.404580152671755,6.809160305343511,3.847328244274809,925,5,-4,-11.64749916527549,2781.453616909968,-0.005256,False,,False,,,,,32
3041.609,3.3343461589997787,-0.938232421875,0.3828125,-0.029052734375,17.404580152671755,6.809160305343511,3.847328244274809,925,5,-4,-11.64749916527549,2781.453616909968,-0.005256,False,,False,,,,,32
3041.614,3.3363471529996787,-0.935791015625,0.38916015625,-0.032470703125,18.137404580152673,6.351145038167939,3.450381679389313,924,-5,-1,-11.649971089103614,2782.143278881742,-0.001314,False,,False,,,,,32
3041.614,3.338349017999917,-0.935791015625,0.38916015625,-0.032470703125,18.137404580152673,6.351145038167939,3.450381679389313,924,-5,-1,-11.649971089103614,2782.143278881742,-0.001314,False,,False,,,,,32
3041.619,3.3403508639999018,-0.929931640625,0.392822265625,-0.03173828125,18.900763358778626,6.442748091603053,3.32824427480916,925,-2,-1,-11.64749916527549,2782.7828235328284,-0.001314,False,,False,,,,,32
3041.619,3.3423512649997065,-0.929931640625,0.392822265625,-0.03173828125,18.900763358778626,6.442748091603053,3.32824427480916,925,-2,-1,-11.64749916527549,2782.7828235328284,-0.001314,False,,False,,,,,32
3041.619,3.3443545929999345,-0.929931640625,0.392822265625,-0.03173828125,18.900763358778626,6.442748091603053,3.32824427480916,925,-2,-1,-11.64749916527549,2782.7828235328284,-0.001314,False,,False,,,,,32
3041.6240000000003,3.3463549759999296,-0.927001953125,0.39208984375,-0.02978515625,20.427480916030532,6.045801526717557,2.8702290076335877,925,0,0,-11.64749916527549,2783.378307990211,0.0,False,,False,,,,,32
3041.6240000000003,3.348356598999999,-0.927001953125,0.39208984375,-0.02978515625,20.427480916030532,6.045801526717557,2.8702290076335877,925,0,0,-11.64749916527549,2783.378307990211,0.0,False,,False,,,,,32
3041.629,3.3503579270000046,-0.913818359375,0.38623046875,-0.026611328125,20.793893129770993,5.770992366412213,2.717557251908397,926,0,-2,-11.645027241447364,2783.930069946752,-0.002628,False,,False,,,,,32
3041.629,3.352359105999767,-0.913818359375,0.38623046875,-0.026611328125,20.793893129770993,5.770992366412213,2.717557251908397,926,0,-2,-11.645027241447364,2783.930069946752,-0.002628,False,,False,,,,,32
3041.629,3.3543627669996567,-0.913818359375,0.38623046875,-0.026611328125,20.793893129770993,5.770992366412213,2.717557251908397,926,0,-2,-11.645027241447364,2783.930069946752,-0.002628,False,,False,,,,,32
3041.634,3.3563622419997046,-0.91357421875,0.39013671875,-0.024169921875,21.31297709923664,5.526717557251908,2.6259541984732824,925,3,-3,-11.64749916527549,2784.435444500279,-0.003942,False,,False,,,,,32
3041.634,3.3583636999996997,-0.91357421875,0.39013671875,-0.024169921875,21.31297709923664,5.526717557251908,2.6259541984732824,925,3,-3,-11.64749916527549,2784.435444500279,-0.003942,False,,False,,,,,32
3041.639,3.3603655079996315,-0.910888671875,0.392578125,-0.02734375,22.076335877862594,5.312977099236641,2.4122137404580153,926,1,-10,-11.645027241447364,2784.8928726433533,-0.013139999999999999,False,,False,,,,,32
3041.639,3.362366798999574,-0.910888671875,0.392578125,-0.02734375,22.076335877862594,5.312977099236641,2.4122137404580153,926,1,-10,-11.645027241447364,2784.8928726433533,-0.013139999999999999,False,,False,,,,,32
3041.639,3.364370014999622,-0.910888671875,0.392578125,-0.02734375,22.076335877862594,5.312977099236641,2.4122137404580153,926,1,-10,-11.645027241447364,2784.8928726433533,-0.013139999999999999,False,,False,,,,,32
3041.6440000000002,3.3663703059996806,-0.8984375,0.390869140625,-0.0244140625,23.32824427480916,4.519083969465648,2.4122137404580153,925,1,-1,-11.64749916527549,2785.3035342942335,-0.001314,False,,False,,,,,32
3041.6440000000002,3.368371336999644,-0.8984375,0.390869140625,-0.0244140625,23.32824427480916,4.519083969465648,2.4122137404580153,925,1,-1,-11.64749916527549,2785.3035342942335,-0.001314,False,,False,,,,,32
3041.649,3.3703728859995863,-0.893798828125,0.393310546875,-0.02490234375,23.877862595419845,4.061068702290076,2.3206106870229006,926,4,3,-11.645027241447364,2785.669094754034,0.003942,False,,False,,,,,32
3041.649,3.3723737689997506,-0.893798828125,0.393310546875,-0.02490234375,23.877862595419845,4.061068702290076,2.3206106870229006,926,4,3,-11.645027241447364,2785.669094754034,0.003942,False,,False,,,,,32
3041.649,3.374376614999619,-0.893798828125,0.393310546875,-0.02490234375,23.877862595419845,4.061068702290076,2.3206106870229006,926,4,3,-11.645027241447364,2785.669094754034,0.003942,False,,False,,,,,32
3041.654,3.3763779799996883,-0.8955078125,0.395751953125,-0.02587890625,24.335877862595417,3.480916030534351,2.4122137404580153,925,2,-4,-11.64749916527549,2785.9916015508925,-0.005256,False,,False,,,,,32
3041.654,3.378378973999588,-0.8955078125,0.395751953125,-0.02587890625,24.335877862595417,3.480916030534351,2.4122137404580153,925,2,-4,-11.64749916527549,2785.9916015508925,-0.005256,False,,False,,,,,32
3041.659,3.380380282999795,-0.89208984375,0.393798828125,-0.028564453125,24.793893129770993,2.8396946564885495,2.2900763358778624,926,2,-8,-11.645027241447364,2786.273392542579,-0.010512,False,,False,,,,,32
3041.659,3.382381776999864,-0.89208984375,0.393798828125,-0.028564453125,24.793893129770993,2.8396946564885495,2.2900763358778624,926,2,-8,-11.645027241447364,2786.273392542579,-0.010512,False,,False,,,,,32
3041.659,3.3843838079997113,-0.89208984375,0.393798828125,-0.028564453125,24.793893129770993,2.8396946564885495,2.2900763358778624,926,2,-8,-11.645027241447364,2786.273392542579,-0.010512,False,,False,,,,,32
3041.664,3.3863848579999285,-0.886962890625,0.401611328125,-0.0322265625,25.709923664122137,2.16793893129771,2.3206106870229006,925,-2,-9,-11.64749916527549,2786.517014779439,-0.011826,False,,False,,,,,32
3041.664,3.3883859069997015,-0.886962890625,0.401611328125,-0.0322265625,25.709923664122137,2.16793893129771,2.3206106870229006,925,-2,-9,-11.64749916527549,2786.517014779439,-0.011826,False,,False,,,,,32
3041.669,3.3903877899997497,-0.88916015625,0.403076171875,-0.034912109375,26.076335877862594,2.015267175572519,2.687022900763359,926,0,0,-11.645027241447364,2786.725153547417,0.0,False,,False,,,,,32
3041.669,3.392388209999808,-0.88916015625,0.403076171875,-0.034912109375,26.076335877862594,2.015267175572519,2.687022900763359,926,0,0,-11.645027241447364,2786.725153547417,0.0,False,,False,,,,,32
3041.669,3.3943915379995815,-0.88916015625,0.403076171875,-0.034912109375,26.076335877862594,2.015267175572519,2.687022900763359,926,0,0,-11.645027241447364,2786.725153547417,0.0,False,,False,,,,,32
3041.674,3.3963911979999466,-0.88525390625,0.40283203125,-0.03515625,26.717557251908396,1.7099236641221374,2.8396946564885495,926,-1,-3,-11.645027241447364,2786.902361462096,-0.003942,False,,False,,,,,32
3041.674,3.3983933589997832,-0.88525390625,0.40283203125,-0.03515625,26.717557251908396,1.7099236641221374,2.8396946564885495,926,-1,-3,-11.645027241447364,2786.902361462096,-0.003942,False,,False,,,,,32
3041.679,3.40039429799981,-0.885498046875,0.406494140625,-0.03466796875,27.083969465648853,1.4045801526717556,2.9618320610687023,927,4,-7,-11.64255531761924,2787.052897974668,-0.009198,False,,False,,,,,32
3041.679,3.4023961439997947,-0.885498046875,0.406494140625,-0.03466796875,27.083969465648853,1.4045801526717556,2.9618320610687023,927,4,-7,-11.64255531761924,2787.052897974668,-0.009198,False,,False,,,,,32
3041.679,3.404398581999885,-0.885498046875,0.406494140625,-0.03466796875,27.083969465648853,1.4045801526717556,2.9618320610687023,927,4,-7,-11.64255531761924,2787.052897974668,-0.009198,False,,False,,,,,32
3041.684,3.4063988729999437,-0.883544921875,0.40966796875,-0.041259765625,28.15267175572519,1.2519083969465647,3.3587786259541983,927,5,-2,-11.64255531761924,2787.1789248966456,-0.002628,False,,False,,,,,32
3041.684,3.408400125999833,-0.883544921875,0.40966796875,-0.041259765625,28.15267175572519,1.2519083969465647,3.3587786259541983,927,5,-2,-11.64255531761924,2787.1789248966456,-0.002628,False,,False,,,,,32
3041.689,3.4104009899997436,-0.884033203125,0.414794921875,-0.04541015625,28.519083969465647,0.9770992366412213,3.3893129770992365,926,2,0,-11.645027241447364,2787.2790261141868,0.0,False,,False,,,,,32
3041.689,3.4124027249999926,-0.884033203125,0.414794921875,-0.04541015625,28.519083969465647,0.9770992366412213,3.3893129770992365,926,2,0,-11.645027241447364,2787.2790261141868,0.0,False,,False,,,,,32
3041.689,3.4144062379996285,-0.884033203125,0.414794921875,-0.04541015625,28.519083969465647,0.9770992366412213,3.3893129770992365,926,2,0,-11.645027241447364,2787.2790261141868,0.0,False,,False,,,,,32
3041.694,3.4164090099998248,-0.889404296875,0.4140625,-0.044677734375,29.12977099236641,0.7022900763358778,3.847328244274809,927,-1,2,-11.64255531761924,2787.3541821655117,0.002628,False,,False,,,,,32
3041.694,3.418405929999608,-0.889404296875,0.4140625,-0.044677734375,29.12977099236641,0.7022900763358778,3.847328244274809,927,-1,2,-11.64255531761924,2787.3541821655117,0.002628,False,,False,,,,,32
3041.699,3.4204072200000155,-0.8955078125,0.415771484375,-0.045166015625,29.801526717557252,0.549618320610687,3.8167938931297707,928,0,0,-11.640083393791114,2787.4127373278484,0.0,False,,False,,,,,32
3041.699,3.4224086770000213,-0.8955078125,0.415771484375,-0.045166015625,29.801526717557252,0.549618320610687,3.8167938931297707,928,0,0,-11.640083393791114,2787.4127373278484,0.0,False,,False,,,,,32
3041.699,3.4244138749995727,-0.8955078125,0.415771484375,-0.045166015625,29.801526717557252,0.549618320610687,3.8167938931297707,928,0,0,-11.640083393791114,2787.4127373278484,0.0,False,,False,,,,,32
3041.704,3.426410609999948,-0.90087890625,0.413818359375,-0.053955078125,30.16793893129771,0.6106870229007634,4.213740458015267,928,4,-1,-11.640083393791114,2787.458336761182,-0.001314,False,,False,,,,,32
3041.704,3.428670303999752,-0.90087890625,0.413818359375,-0.053955078125,30.16793893129771,0.6106870229007634,4.213740458015267,928,4,-1,-11.640083393791114,2787.458336761182,-0.001314,False,,False,,,,,32
3041.7090000000003,3.430675594999684,-0.907470703125,0.412353515625,-0.060546875,30.62595419847328,0.5190839694656488,3.969465648854962,929,2,-1,-11.63761146996299,2787.4906388052505,-0.001314,False,,False,,,,,32
3041.7090000000003,3.432677847999912,-0.907470703125,0.412353515625,-0.060546875,30.62595419847328,0.5190839694656488,3.969465648854962,929,2,-1,-11.63761146996299,2787.4906388052505,-0.001314,False,,False,,,,,32
3041.714,3.4354576289997567,-0.908935546875,0.41796875,-0.062744140625,31.69465648854962,0.0916030534351145,3.9389312977099236,928,-4,-3,-11.640083393791114,2787.5095500649027,-0.003942,False,,False,,,,,32
3041.714,3.4374603639998895,-0.908935546875,0.41796875,-0.062744140625,31.69465648854962,0.0916030534351145,3.9389312977099236,928,-4,-3,-11.640083393791114,2787.5095500649027,-0.003942,False,,False,,,,,32
3041.714,3.439461561999906,-0.908935546875,0.41796875,-0.062744140625,31.69465648854962,0.0916030534351145,3.9389312977099236,928,-4,-3,-11.640083393791114,2787.5095500649027,-0.003942,False,,False,,,,,32
3041.719,3.4414639259998694,-0.90576171875,0.424072265625,-0.061279296875,32.61068702290076,-0.33587786259541985,3.847328244274809,929,2,-8,-11.63761146996299,2787.5151863400592,-0.010512,False,,False,,,,,32
3041.719,3.4434642909996,-0.90576171875,0.424072265625,-0.061279296875,32.61068702290076,-0.33587786259541985,3.847328244274809,929,2,-8,-11.63761146996299,2787.5151863400592,-0.010512,False,,False,,,,,32
3041.724,3.4454720069998075,-0.905029296875,0.44970703125,-0.060791015625,34.595419847328245,-1.1908396946564885,4.427480916030534,928,-3,-3,-11.640083393791114,2787.509627389684,-0.003942,False,,False,,,,,32
3041.724,3.447467297000003,-0.905029296875,0.44970703125,-0.060791015625,34.595419847328245,-1.1908396946564885,4.427480916030534,928,-3,-3,-11.640083393791114,2787.509627389684,-0.003942,False,,False,,,,,32
3041.724,3.4494684579999557,-0.905029296875,0.44970703125,-0.060791015625,34.595419847328245,-1.1908396946564885,4.427480916030534,928,-3,-3,-11.640083393791114,2787.509627389684,-0.003942,False,,False,,,,,32
3041.7290000000003,3.4514699339997605,-0.897705078125,0.42236328125,-0.055908203125,33.31297709923664,-2.4427480916030535,4.549618320610687,929,7,-7,-11.63761146996299,2787.494776531985,-0.009198,False,,False,,,,,32
3041.7290000000003,3.4534717980000096,-0.897705078125,0.42236328125,-0.055908203125,33.31297709923664,-2.4427480916030535,4.549618320610687,929,7,-7,-11.63761146996299,2787.494776531985,-0.009198,False,,False,,,,,32
3041.734,3.4554727179997826,-0.914794921875,0.419921875,-0.065185546875,34.045801526717554,-2.381679389312977,4.061068702290076,931,5,-6,-11.63266762230674,2787.477733313695,-0.007884,False,,False,,,,,32
3041.734,3.4574744899996404,-0.914794921875,0.419921875,-0.065185546875,34.045801526717554,-2.381679389312977,4.061068702290076,931,5,-6,-11.63266762230674,2787.477733313695,-0.007884,False,,False,,,,,32
3041.734,3.4594760949999,-0.914794921875,0.419921875,-0.065185546875,34.045801526717554,-2.381679389312977,4.061068702290076,931,5,-6,-11.63266762230674,2787.477733313695,-0.007884,False,,False,,,,,32
3041.739,3.4614773119997153,-0.91064453125,0.44482421875,-0.061767578125,36.42748091603053,-2.8091603053435112,4.458015267175572,930,3,-5,-11.635139546134864,2787.460892096865,-0.0065699999999999995,False,,False,,,,,32
3041.739,3.463478508999742,-0.91064453125,0.44482421875,-0.061767578125,36.42748091603053,-2.8091603053435112,4.458015267175572,930,3,-5,-11.635139546134864,2787.460892096865,-0.0065699999999999995,False,,False,,,,,32
3041.744,3.465480132999801,-0.89306640625,0.43408203125,-0.056396484375,37.46564885496183,-4.9465648854961835,4.916030534351145,932,10,0,-11.630195698478614,2787.4408829567938,0.0,False,,False,,,,,32
3041.744,3.467482034999648,-0.89306640625,0.43408203125,-0.056396484375,37.46564885496183,-4.9465648854961835,4.916030534351145,932,10,0,-11.630195698478614,2787.4408829567938,0.0,False,,False,,,,,32
3041.744,3.4694834549995903,-0.89306640625,0.43408203125,-0.056396484375,37.46564885496183,-4.9465648854961835,4.916030534351145,932,10,0,-11.630195698478614,2787.4408829567938,0.0,False,,False,,,,,32
3041.7490000000003,3.471485262999977,-0.89013671875,0.465087890625,-0.05615234375,37.038167938931295,-4.458015267175572,7.419847328244274,932,-3,2,-11.630195698478614,2787.420302059692,0.002628,False,,False,,,,,32
3041.7490000000003,3.473486497999602,-0.89013671875,0.465087890625,-0.05615234375,37.038167938931295,-4.458015267175572,7.419847328244274,932,-3,2,-11.630195698478614,2787.420302059692,0.002628,False,,False,,,,,32
3041.754,3.4754882889997134,-0.866455078125,0.435302734375,-0.05859375,35.083969465648856,-5.374045801526718,7.267175572519084,934,9,4,-11.625251850822364,2787.4013311529984,0.005256,False,,False,,,,,32
3041.754,3.4774891349998143,-0.866455078125,0.435302734375,-0.05859375,35.083969465648856,-5.374045801526718,7.267175572519084,934,9,4,-11.625251850822364,2787.4013311529984,0.005256,False,,False,,,,,32
3041.754,3.479491257999598,-0.866455078125,0.435302734375,-0.05859375,35.083969465648856,-5.374045801526718,7.267175572519084,934,9,4,-11.625251850822364,2787.4013311529984,0.005256,False,,False,,,,,32
3041.759,3.481492029999572,-0.89599609375,0.4443359375,-0.05712890625,35.87786259541985,-3.633587786259542,8.0,934,1,5,-11.625251850822364,2787.3839829279796,0.0065699999999999995,False,,False,,,,,32
3041.759,3.483493709999948,-0.89599609375,0.4443359375,-0.05712890625,35.87786259541985,-3.633587786259542,8.0,934,1,5,-11.625251850822364,2787.3839829279796,0.0065699999999999995,False,,False,,,,,32
3041.764,3.4854943329996786,-0.86181640625,0.463134765625,-0.06787109375,38.44274809160305,-3.633587786259542,9.129770992366412,936,1,-1,-11.620308003166114,2787.36824450035,-0.001314,False,,False,,,,,32
3041.764,3.4874963639999805,-0.86181640625,0.463134765625,-0.06787109375,38.44274809160305,-3.633587786259542,9.129770992366412,936,1,-1,-11.620308003166114,2787.36824450035,-0.001314,False,,False,,,,,32
3041.764,3.489497265999944,-0.86181640625,0.463134765625,-0.06787109375,38.44274809160305,-3.633587786259542,9.129770992366412,936,1,-1,-11.620308003166114,2787.36824450035,-0.001314,False,,False,,,,,32
3041.7690000000002,3.491499463999844,-0.857666015625,0.458984375,-0.060791015625,40.48854961832061,-4.152671755725191,9.34351145038168,936,4,8,-11.620308003166114,2787.3540817629287,0.010512,False,,False,,,,,32
3041.7690000000002,3.4935008099996594,-0.857666015625,0.458984375,-0.060791015625,40.48854961832061,-4.152671755725191,9.34351145038168,936,4,8,-11.620308003166114,2787.3540817629287,0.010512,False,,False,,,,,32
3041.774,3.495502636999845,-0.857177734375,0.44970703125,-0.047607421875,42.167938931297705,-5.312977099236641,9.34351145038168,940,10,5,-11.610420307853614,2787.345024345387,0.0065699999999999995,False,,False,,,,,32
3041.774,3.4975036499999987,-0.857177734375,0.44970703125,-0.047607421875,42.167938931297705,-5.312977099236641,9.34351145038168,940,10,5,-11.610420307853614,2787.345024345387,0.0065699999999999995,False,,False,,,,,32
3041.774,3.4995051070000045,-0.857177734375,0.44970703125,-0.047607421875,42.167938931297705,-5.312977099236641,9.34351145038168,940,10,5,-11.610420307853614,2787.345024345387,0.0065699999999999995,False,,False,,,,,32
3041.779,3.5015063229998304,-0.865478515625,0.43310546875,-0.042724609375,42.900763358778626,-5.435114503816794,9.435114503816793,942,17,-2,-11.605476460197364,2787.347534237886,-0.002628,False,,False,,,,,32
3041.779,3.503508409999995,-0.865478515625,0.43310546875,-0.042724609375,42.900763358778626,-5.435114503816794,9.435114503816793,942,17,-2,-11.605476460197364,2787.347534237886,-0.002628,False,,False,,,,,32
3041.784,3.5055092739999054,-0.873779296875,0.418701171875,-0.042236328125,42.717557251908396,-5.648854961832061,9.49618320610687,944,16,-4,-11.600532612541114,2787.359691709061,-0.005256,False,,False,,,,,32
3041.784,3.5075107499997102,-0.873779296875,0.418701171875,-0.042236328125,42.717557251908396,-5.648854961832061,9.49618320610687,944,16,-4,-11.600532612541114,2787.359691709061,-0.005256,False,,False,,,,,32
3041.784,3.5095132809997267,-0.873779296875,0.418701171875,-0.042236328125,42.717557251908396,-5.648854961832061,9.49618320610687,944,16,-4,-11.600532612541114,2787.359691709061,-0.005256,False,,False,,,,,32
3041.789,3.511514015999637,-0.88134765625,0.427001953125,-0.044921875,43.48091603053435,-5.679389312977099,9.34351145038168,949,21,-2,-11.58817299340049,2787.381540337377,-0.002628,False,,False,,,,,32
3041.789,3.5135157319996324,-0.88134765625,0.427001953125,-0.044921875,43.48091603053435,-5.679389312977099,9.34351145038168,949,21,-2,-11.58817299340049,2787.381540337377,-0.002628,False,,False,,,,,32
3041.794,3.5155173739999555,-0.882080078125,0.42626953125,-0.0458984375,45.038167938931295,-5.923664122137405,9.129770992366412,957,35,-6,-11.56839760277549,2787.427300247959,-0.007884,False,,False,,,,,32
3041.794,3.5175188869998237,-0.882080078125,0.42626953125,-0.0458984375,45.038167938931295,-5.923664122137405,9.129770992366412,957,35,-6,-11.56839760277549,2787.427300247959,-0.007884,False,,False,,,,,32
3041.794,3.519519824999861,-0.882080078125,0.42626953125,-0.0458984375,45.038167938931295,-5.923664122137405,9.129770992366412,957,35,-6,-11.56839760277549,2787.427300247959,-0.007884,False,,False,,,,,32
3041.799,3.5215213379997294,-0.8974609375,0.422119140625,-0.046630859375,47.20610687022901,-6.381679389312977,8.274809160305344,971,72,0,-11.53379066918174,2787.5192728974453,0.0,False,,False,,,,,32
3041.799,3.5235227209996083,-0.8974609375,0.422119140625,-0.046630859375,47.20610687022901,-6.381679389312977,8.274809160305344,971,72,0,-11.53379066918174,2787.5192728974453,0.0,False,,False,,,,,32
3041.804,3.5255240859996775,-0.908935546875,0.42578125,-0.046142578125,49.64885496183206,-6.778625954198473,8.854961832061068,993,99,-5,-11.47940834496299,2787.689783216337,-0.0065699999999999995,False,,False,,,,,32
3041.804,3.527525319999768,-0.908935546875,0.42578125,-0.046142578125,49.64885496183206,-6.778625954198473,8.854961832061068,993,99,-5,-11.47940834496299,2787.689783216337,-0.0065699999999999995,False,,False,,,,,32
3041.804,3.5295266289999745,-0.908935546875,0.42578125,-0.046142578125,49.64885496183206,-6.778625954198473,8.854961832061068,993,99,-5,-11.47940834496299,2787.689783216337,-0.0065699999999999995,False,,False,,,,,32
3041.809,3.53152797499979,-0.884521484375,0.444091796875,-0.046630859375,46.229007633587784,-6.229007633587786,10.625954198473282,1011,78,-4,-11.43491371605674,2787.955802768793,-0.005256,False,,False,,,,,32
3041.809,3.5335309319998487,-0.884521484375,0.444091796875,-0.046630859375,46.229007633587784,-6.229007633587786,10.625954198473282,1011,78,-4,-11.43491371605674,2787.955802768793,-0.005256,False,,False,,,,,32
3041.814,3.5355308709999917,-0.884765625,0.4453125,-0.049072265625,44.61068702290076,-6.625954198473282,11.114503816793892,1017,31,-6,-11.42008217308799,2788.2764410976474,-0.007884,False,,False,,,,,32
3041.814,3.5375320869998177,-0.884765625,0.4453125,-0.049072265625,44.61068702290076,-6.625954198473282,11.114503816793892,1017,31,-6,-11.42008217308799,2788.2764410976474,-0.007884,False,,False,,,,,32
3041.814,3.5395337659997494,-0.884765625,0.4453125,-0.049072265625,44.61068702290076,-6.625954198473282,11.114503816793892,1017,31,-6,-11.42008217308799,2788.2764410976474,-0.007884,False,,False,,,,,32
3041.819,3.5415361119999034,-0.90234375,0.45068359375,-0.051513671875,46.5648854961832,-6.564885496183206,10.778625954198473,1023,31,5,-11.40525063011924,2788.5880261485286,0.0065699999999999995,False,,False,,,,,32
3041.819,3.5435374029998457,-0.90234375,0.45068359375,-0.051513671875,46.5648854961832,-6.564885496183206,10.778625954198473,1023,31,5,-11.40525063011924,2788.5880261485286,0.0065699999999999995,False,,False,,,,,32
3041.824,3.5455388599998514,-0.921142578125,0.42919921875,-0.07275390625,50.01526717557252,-5.6183206106870225,10.106870229007633,1029,36,2,-11.39041908715049,2788.866032063009,0.002628,False,,False,,,,,32
3041.824,3.547540760999709,-0.921142578125,0.42919921875,-0.07275390625,50.01526717557252,-5.6183206106870225,10.106870229007633,1029,36,2,-11.39041908715049,2788.866032063009,0.002628,False,,False,,,,,32
3041.824,3.549541995999789,-0.921142578125,0.42919921875,-0.07275390625,50.01526717557252,-5.6183206106870225,10.106870229007633,1029,36,2,-11.39041908715049,2788.866032063009,0.002628,False,,False,,,,,32
3041.829,3.5515427119999003,-0.93115234375,0.4130859375,-0.076904296875,50.595419847328245,-4.6106870229007635,9.923664122137405,1041,57,-2,-11.36075600121299,2789.122641769186,-0.002628,False,,False,,,,,32
3041.829,3.5535441319998426,-0.93115234375,0.4130859375,-0.076904296875,50.595419847328245,-4.6106870229007635,9.923664122137405,1041,57,-2,-11.36075600121299,2789.122641769186,-0.002628,False,,False,,,,,32
3041.8340000000003,3.5555455149997215,-0.93115234375,0.422607421875,-0.083740234375,51.23664122137404,-3.969465648854962,10.13740458015267,1061,84,0,-11.31131752465049,2789.393431611186,0.0,False,,False,,,,,32
3041.8340000000003,3.557547231999706,-0.93115234375,0.422607421875,-0.083740234375,51.23664122137404,-3.969465648854962,10.13740458015267,1061,84,0,-11.31131752465049,2789.393431611186,0.0,False,,False,,,,,32
3041.8340000000003,3.559549410999807,-0.93115234375,0.422607421875,-0.083740234375,51.23664122137404,-3.969465648854962,10.13740458015267,1061,84,0,-11.31131752465049,2789.393431611186,0.0,False,,False,,,,,32
3041.839,3.5615502199998446,-0.914794921875,0.44775390625,-0.0830078125,51.11450381679389,-3.5725190839694654,11.236641221374045,1083,89,-2,-11.25693520043174,2789.715142045374,-0.002628,False,,False,,,,,32
3041.839,3.563552083999639,-0.914794921875,0.44775390625,-0.0830078125,51.11450381679389,-3.5725190839694654,11.236641221374045,1083,89,-2,-11.25693520043174,2789.715142045374,-0.002628,False,,False,,,,,32
3041.844,3.565553522999835,-0.935791015625,0.423095703125,-0.078369140625,55.75572519083969,-6.229007633587786,8.854961832061068,1107,109,-3,-11.19760902855674,2790.09988879334,-0.003942,False,,False,,,,,32
3041.844,3.5675558129996716,-0.935791015625,0.423095703125,-0.078369140625,55.75572519083969,-6.229007633587786,8.854961832061068,1107,109,-3,-11.19760902855674,2790.09988879334,-0.003942,False,,False,,,,,32
3041.844,3.569556621999709,-0.935791015625,0.423095703125,-0.078369140625,55.75572519083969,-6.229007633587786,8.854961832061068,1107,109,-3,-11.19760902855674,2790.09988879334,-0.003942,False,,False,,,,,32
3041.849,3.5715582459997677,-0.940673828125,0.43798828125,-0.070556640625,58.19847328244275,-5.740458015267175,9.801526717557252,1140,142,5,-11.116035542228614,2790.558692227406,0.0065699999999999995,False,,False,,,,,32
3041.849,3.573559572999784,-0.940673828125,0.43798828125,-0.070556640625,58.19847328244275,-5.740458015267175,9.801526717557252,1140,142,5,-11.116035542228614,2790.558692227406,0.0065699999999999995,False,,False,,,,,32
3041.8540000000003,3.5755610299997898,-0.9033203125,0.41259765625,-0.07763671875,55.358778625954194,-5.435114503816794,10.167938931297709,1170,139,0,-11.041877827384864,2791.1032865704783,0.0,False,,False,,,,,32
3041.8540000000003,3.5775715979998495,-0.9033203125,0.41259765625,-0.07763671875,55.358778625954194,-5.435114503816794,10.167938931297709,1170,139,0,-11.041877827384864,2791.1032865704783,0.0,False,,False,,,,,32
3041.8540000000003,3.5795642589996532,-0.9033203125,0.41259765625,-0.07763671875,55.358778625954194,-5.435114503816794,10.167938931297709,1170,139,0,-11.041877827384864,2791.1032865704783,0.0,False,,False,,,,,32
3041.859,3.581568215999596,-0.94140625,0.386962890625,-0.0791015625,55.48091603053435,-5.923664122137405,8.793893129770993,1205,155,0,-10.95536049340049,2791.7261381336116,0.0,False,,False,,,,,32
3041.859,3.583566711000003,-0.94140625,0.386962890625,-0.0791015625,55.48091603053435,-5.923664122137405,8.793893129770993,1205,155,0,-10.95536049340049,2791.7261381336116,0.0,False,,False,,,,,32
3041.864,3.5855712049997237,-0.91650390625,0.3857421875,-0.081298828125,57.98473282442748,-6.625954198473282,7.236641221374046,1242,165,7,-10.863899311759864,2792.421596663913,0.009198,False,,False,,,,,32
3041.864,3.587572383999941,-0.91650390625,0.3857421875,-0.081298828125,57.98473282442748,-6.625954198473282,7.236641221374046,1242,165,7,-10.863899311759864,2792.421596663913,0.009198,False,,False,,,,,32
3041.864,3.589575581999725,-0.91650390625,0.3857421875,-0.081298828125,57.98473282442748,-6.625954198473282,7.236641221374046,1242,165,7,-10.863899311759864,2792.421596663913,0.009198,False,,False,,,,,32
3041.869,3.591572649999762,-0.954345703125,0.41748046875,-0.06494140625,61.77099236641221,-5.801526717557252,7.7251908396946565,1287,198,3,-10.75266273949424,2793.1982040675803,0.003942,False,,False,,,,,32
3041.869,3.5935744959997464,-0.954345703125,0.41748046875,-0.06494140625,61.77099236641221,-5.801526717557252,7.7251908396946565,1287,198,3,-10.75266273949424,2793.1982040675803,0.003942,False,,False,,,,,32
3041.8740000000003,3.595585063999806,-0.90380859375,0.36767578125,-0.06005859375,63.175572519083964,-8.885496183206106,5.6183206106870225,1341,239,-1,-10.61917885277549,2794.079840931919,-0.001314,False,,False,,,,,32
3041.8740000000003,3.597586279999632,-0.90380859375,0.36767578125,-0.06005859375,63.175572519083964,-8.885496183206106,5.6183206106870225,1341,239,-1,-10.61917885277549,2794.079840931919,-0.001314,False,,False,,,,,32
3041.8740000000003,3.599585255999955,-0.90380859375,0.36767578125,-0.06005859375,63.175572519083964,-8.885496183206106,5.6183206106870225,1341,239,-1,-10.61917885277549,2794.079840931919,-0.001314,False,,False,,,,,32
3041.879,3.601590286999908,-0.9453125,0.387939453125,-0.0419921875,63.480916030534345,-8.427480916030534,5.49618320610687,1401,280,-1,-10.47086342308799,2795.0939306361042,-0.001314,False,,False,,,,,32
3041.879,3.6035924109996813,-0.9453125,0.387939453125,-0.0419921875,63.480916030534345,-8.427480916030534,5.49618320610687,1401,280,-1,-10.47086342308799,2795.0939306361042,-0.001314,False,,False,,,,,32
3041.884,3.605592644999888,-0.92138671875,0.357177734375,-0.04833984375,62.25954198473282,-10.045801526717558,5.343511450381679,1465,283,0,-10.31266029808799,2796.248979192821,0.0,False,,False,,,,,32
3041.884,3.607592805999957,-0.92138671875,0.357177734375,-0.04833984375,62.25954198473282,-10.045801526717558,5.343511450381679,1465,283,0,-10.31266029808799,2796.248979192821,0.0,False,,False,,,,,32
3041.884,3.609592003999751,-0.92138671875,0.357177734375,-0.04833984375,62.25954198473282,-10.045801526717558,5.343511450381679,1465,283,0,-10.31266029808799,2796.248979192821,0.0,False,,False,,,,,32
3041.889,3.6115939429996615,-0.919921875,0.36474609375,-0.056884765625,59.45038167938931,-8.977099236641221,5.435114503816794,1527,271,2,-10.15940102074424,2797.526789091507,0.002628,False,,False,,,,,32
3041.889,3.6135947329999,-0.919921875,0.36474609375,-0.056884765625,59.45038167938931,-8.977099236641221,5.435114503816794,1527,271,2,-10.15940102074424,2797.526789091507,0.002628,False,,False,,,,,32
3041.8940000000002,3.6155960969999796,-0.938232421875,0.38134765625,-0.066650390625,58.9618320610687,-7.969465648854961,5.2824427480916025,1586,268,1,-10.013557514884864,2798.8834897377865,0.001314,False,,False,,,,,32
3041.8940000000002,3.6175980169996365,-0.938232421875,0.38134765625,-0.066650390625,58.9618320610687,-7.969465648854961,5.2824427480916025,1586,268,1,-10.013557514884864,2798.8834897377865,0.001314,False,,False,,,,,32
3041.8940000000002,3.619598899999801,-0.938232421875,0.38134765625,-0.066650390625,58.9618320610687,-7.969465648854961,5.2824427480916025,1586,268,1,-10.013557514884864,2798.8834897377865,0.001314,False,,False,,,,,32
3041.899,3.6216113569998925,-0.90869140625,0.406005859375,-0.065185546875,59.51145038167939,-8.030534351145038,6.290076335877862,1643,247,-5,-9.87265785668174,2800.2686770790556,-0.0065699999999999995,False,,False,,,,,32
3041.899,3.6236018149998017,-0.90869140625,0.406005859375,-0.065185546875,59.51145038167939,-8.030534351145038,6.290076335877862,1643,247,-5,-9.87265785668174,2800.2686770790556,-0.0065699999999999995,False,,False,,,,,32
3041.904,3.625603308999871,-0.89697265625,0.37060546875,-0.03857421875,60.88549618320611,-10.351145038167939,5.038167938931298,1697,240,-3,-9.73917396996299,2801.6397410883787,-0.003942,False,,False,,,,,32
3041.904,3.6276048400000036,-0.89697265625,0.37060546875,-0.03857421875,60.88549618320611,-10.351145038167939,5.038167938931298,1697,240,-3,-9.73917396996299,2801.6397410883787,-0.003942,False,,False,,,,,32
3041.904,3.6296097599997665,-0.89697265625,0.37060546875,-0.03857421875,60.88549618320611,-10.351145038167939,5.038167938931298,1697,240,-3,-9.73917396996299,2801.6397410883787,-0.003942,False,,False,,,,,32
3041.909,3.6316076429998247,-0.949462890625,0.368896484375,-0.088623046875,57.343511450381676,-4.580152671755725,6.564885496183206,1757,265,3,-9.59085854027549,2802.9755380653683,0.003942,False,,False,,,,,32
3041.909,3.63360935899982,-0.949462890625,0.368896484375,-0.088623046875,57.343511450381676,-4.580152671755725,6.564885496183206,1757,265,3,-9.59085854027549,2802.9755380653683,0.003942,False,,False,,,,,32
3041.914,3.635615315999985,-0.890380859375,0.387451171875,-0.1181640625,55.05343511450381,-2.8091603053435112,7.572519083969465,1820,281,1,-9.435127339103614,2804.2839448541927,0.001314,False,,False,,,,,32
3041.914,3.6376150319997578,-0.890380859375,0.387451171875,-0.1181640625,55.05343511450381,-2.8091603053435112,7.572519083969465,1820,281,1,-9.435127339103614,2804.2839448541927,0.001314,False,,False,,,,,32
3041.914,3.6396159889995943,-0.890380859375,0.387451171875,-0.1181640625,55.05343511450381,-2.8091603053435112,7.572519083969465,1820,281,1,-9.435127339103614,2804.2839448541927,0.001314,False,,False,,,,,32
3041.919,3.6416172609997375,-0.8974609375,0.421630859375,-0.1298828125,57.282442748091604,-1.83206106870229,7.267175572519084,1887,300,0,-9.26950844261924,2805.5791146169345,0.0,False,,False,,,,,32
3041.919,3.643620273999659,-0.8974609375,0.421630859375,-0.1298828125,57.282442748091604,-1.83206106870229,7.267175572519084,1887,300,0,-9.26950844261924,2805.5791146169345,0.0,False,,False,,,,,32
3041.924,3.645621471999675,-0.866455078125,0.444091796875,-0.09716796875,62.412213740458014,-4.580152671755725,8.366412213740457,1953,288,1,-9.10636146996299,2806.8623448573667,0.001314,False,,False,,,,,32
3041.924,3.647624039999755,-0.866455078125,0.444091796875,-0.09716796875,62.412213740458014,-4.580152671755725,8.366412213740457,1953,288,1,-9.10636146996299,2806.8623448573667,0.001314,False,,False,,,,,32
3041.924,3.649624644999676,-0.866455078125,0.444091796875,-0.09716796875,62.412213740458014,-4.580152671755725,8.366412213740457,1953,288,1,-9.10636146996299,2806.8623448573667,0.001314,False,,False,,,,,32
3041.929,3.6516304909996506,-0.889892578125,0.406494140625,-0.0859375,61.77099236641221,-5.129770992366412,8.366412213740457,2017,277,0,-8.94815834496299,2808.1169897429036,0.0,False,,False,,,,,32
3041.929,3.6536305219997303,-0.889892578125,0.406494140625,-0.0859375,61.77099236641221,-5.129770992366412,8.366412213740457,2017,277,0,-8.94815834496299,2808.1169897429036,0.0,False,,False,,,,,32
3041.934,3.6556333869998525,-0.8837890625,0.393798828125,-0.075927734375,60.12213740458015,-5.190839694656488,8.916030534351144,2080,278,3,-8.792427143791114,2809.318784771138,0.003942,False,,False,,,,,32
3041.934,3.6576356209998266,-0.8837890625,0.393798828125,-0.075927734375,60.12213740458015,-5.190839694656488,8.916030534351144,2080,278,3,-8.792427143791114,2809.318784771138,0.003942,False,,False,,,,,32
3041.934,3.659636429999864,-0.8837890625,0.393798828125,-0.075927734375,60.12213740458015,-5.190839694656488,8.916030534351144,2080,278,3,-8.792427143791114,2809.318784771138,0.003942,False,,False,,,,,32
3041.939,3.6616384609997112,-0.87646484375,0.378662109375,-0.088134765625,58.412213740458014,-4.763358778625954,8.458015267175572,2145,281,-2,-8.63175209496299,2810.4553437858076,-0.002628,False,,False,,,,,32
3041.939,3.6636383069999283,-0.87646484375,0.378662109375,-0.088134765625,58.412213740458014,-4.763358778625954,8.458015267175572,2145,281,-2,-8.63175209496299,2810.4553437858076,-0.002628,False,,False,,,,,32
3041.944,3.6656522639996183,-0.8818359375,0.397216796875,-0.07666015625,60.79389312977099,-6.290076335877862,7.511450381679389,2213,304,-2,-8.46366127465049,2811.531566413754,-0.002628,False,,False,,,,,32
3041.944,3.667638684999929,-0.8818359375,0.397216796875,-0.07666015625,60.79389312977099,-6.290076335877862,7.511450381679389,2213,304,-2,-8.46366127465049,2811.531566413754,-0.002628,False,,False,,,,,32
3041.944,3.669640789999903,-0.8818359375,0.397216796875,-0.07666015625,60.79389312977099,-6.290076335877862,7.511450381679389,2213,304,-2,-8.46366127465049,2811.531566413754,-0.002628,False,,False,,,,,32
3041.949,3.6716414319998876,-0.873046875,0.3955078125,-0.072998046875,61.862595419847324,-8.030534351145038,7.145038167938931,2287,320,-1,-8.28073891136924,2812.5667526408492,-0.001314,False,,False,,,,,32
3041.949,3.6738194609997663,-0.873046875,0.3955078125,-0.072998046875,61.862595419847324,-8.030534351145038,7.145038167938931,2287,320,-1,-8.28073891136924,2812.5667526408492,-0.001314,False,,False,,,,,32
3041.954,3.675772047999999,-0.90380859375,0.389892578125,-0.083251953125,63.57251908396946,-7.786259541984733,6.687022900763359,2362,331,-1,-8.095344624259864,2813.581235552568,-0.001314,False,,False,,,,,32
3041.954,3.67777372799992,-0.90380859375,0.389892578125,-0.083251953125,63.57251908396946,-7.786259541984733,6.687022900763359,2362,331,-1,-8.095344624259864,2813.581235552568,-0.001314,False,,False,,,,,32
3041.954,3.679775072999746,-0.90380859375,0.389892578125,-0.083251953125,63.57251908396946,-7.786259541984733,6.687022900763359,2362,331,-1,-8.095344624259864,2813.581235552568,-0.001314,False,,False,,,,,32
3041.9590000000003,3.6817796049999743,-0.8701171875,0.392333984375,-0.0927734375,62.29007633587786,-6.961832061068702,7.572519083969465,2435,319,-1,-7.91489418480674,2814.5744325175015,-0.001314,False,,False,,,,,32
3041.9590000000003,3.683779912999853,-0.8701171875,0.392333984375,-0.0927734375,62.29007633587786,-6.961832061068702,7.572519083969465,2435,319,-1,-7.91489418480674,2814.5744325175015,-0.001314,False,,False,,,,,32
3041.964,3.685780870999679,-0.887451171875,0.38232421875,-0.06591796875,60.091603053435115,-8.030534351145038,7.32824427480916,2508,326,0,-7.734443745353615,2815.5300495944302,0.0,False,,False,,,,,32
3041.964,3.687782124000023,-0.887451171875,0.38232421875,-0.06591796875,60.091603053435115,-8.030534351145038,7.32824427480916,2508,326,0,-7.734443745353615,2815.5300495944302,0.0,False,,False,,,,,32
3041.964,3.6897837110000182,-0.887451171875,0.38232421875,-0.06591796875,60.091603053435115,-8.030534351145038,7.32824427480916,2508,326,0,-7.734443745353615,2815.5300495944302,0.0,False,,False,,,,,32
3041.969,3.6917854079997596,-0.869140625,0.39306640625,-0.08203125,60.88549618320611,-8.580152671755725,7.0534351145038165,2582,319,3,-7.551521382072365,2816.4385712126164,0.003942,False,,False,,,,,32
3041.969,3.693788347000009,-0.869140625,0.39306640625,-0.08203125,60.88549618320611,-8.580152671755725,7.0534351145038165,2582,319,3,-7.551521382072365,2816.4385712126164,0.003942,False,,False,,,,,32
3041.974,3.695788173999972,-0.889404296875,0.386962890625,-0.09326171875,63.45038167938931,-9.31297709923664,6.229007633587786,2661,342,0,-7.35623939965049,2817.3070374013223,0.0,False,,False,,,,,32
3041.974,3.697789797999576,-0.889404296875,0.386962890625,-0.09326171875,63.45038167938931,-9.31297709923664,6.229007633587786,2661,342,0,-7.35623939965049,2817.3070374013223,0.0,False,,False,,,,,32
3041.974,3.699790754999867,-0.889404296875,0.386962890625,-0.09326171875,63.45038167938931,-9.31297709923664,6.229007633587786,2661,342,0,-7.35623939965049,2817.3070374013223,0.0,False,,False,,,,,32
3041.9790000000003,3.701792378999926,-0.8857421875,0.38427734375,-0.0986328125,64.36641221374046,-9.49618320610687,6.3206106870229,2742,358,-3,-7.156013569572365,2818.1526652409066,-0.003942,False,,False,,,,,32
3041.9790000000003,3.7037956509998367,-0.8857421875,0.38427734375,-0.0986328125,64.36641221374046,-9.49618320610687,6.3206106870229,2742,358,-3,-7.156013569572365,2818.1526652409066,-0.003942,False,,False,,,,,32
3041.984,3.7057953859998634,-0.879638671875,0.383544921875,-0.08203125,62.07633587786259,-10.99236641221374,7.3893129770992365,2826,366,-2,-6.948371968009865,2818.9884089057355,-0.002628,False,,False,,,,,32
3041.984,3.707797360999848,-0.879638671875,0.383544921875,-0.08203125,62.07633587786259,-10.99236641221374,7.3893129770992365,2826,366,-2,-6.948371968009865,2818.9884089057355,-0.002628,False,,False,,,,,32
3041.984,3.7097990029997163,-0.879638671875,0.383544921875,-0.08203125,62.07633587786259,-10.99236641221374,7.3893129770992365,2826,366,-2,-6.948371968009865,2818.9884089057355,-0.002628,False,,False,,,,,32
3041.989,3.7118007569997644,-0.8642578125,0.370361328125,-0.071533203125,61.64885496183206,-13.587786259541984,6.442748091603053,2911,373,3,-6.73825844261924,2819.819885069726,0.003942,False,,False,,,,,32
3041.989,3.7138041209996118,-0.8642578125,0.370361328125,-0.071533203125,61.64885496183206,-13.587786259541984,6.442748091603053,2911,373,3,-6.73825844261924,2819.819885069726,0.003942,False,,False,,,,,32
3041.994,3.71580478199985,-0.8916015625,0.378662109375,-0.05517578125,62.68702290076336,-14.99236641221374,6.198473282442748,2996,371,4,-6.528144917228615,2820.6446957128064,0.005256,False,,False,,,,,32
3041.994,3.7178060539999933,-0.8916015625,0.378662109375,-0.05517578125,62.68702290076336,-14.99236641221374,6.198473282442748,2996,371,4,-6.528144917228615,2820.6446957128064,0.005256,False,,False,,,,,32
3041.994,3.7198068809998404,-0.8916015625,0.378662109375,-0.05517578125,62.68702290076336,-14.99236641221374,6.198473282442748,2996,371,4,-6.528144917228615,2820.6446957128064,0.005256,False,,False,,,,,32
3041.9990000000003,3.7218091719996664,-0.87109375,0.35693359375,-0.05712890625,62.10687022900763,-16.702290076335878,5.770992366412213,3080,372,-3,-6.320503315666115,2821.4519772973163,-0.003942,False,,False,,,,,32
3041.9990000000003,3.723812962000011,-0.87109375,0.35693359375,-0.05712890625,62.10687022900763,-16.702290076335878,5.770992366412213,3080,372,-3,-6.320503315666115,2821.4519772973163,-0.003942,False,,False,,,,,32
3042.004,3.7258127709997098,-0.891357421875,0.331787109375,-0.054443359375,60.45801526717557,-18.290076335877863,4.396946564885496,3166,381,-3,-6.107917866447365,2822.232889009392,-0.003942,False,,False,,,,,32
3042.004,3.727814190999652,-0.891357421875,0.331787109375,-0.054443359375,60.45801526717557,-18.290076335877863,4.396946564885496,3166,381,-3,-6.107917866447365,2822.232889009392,-0.003942,False,,False,,,,,32
3042.004,3.729815314999996,-0.891357421875,0.331787109375,-0.054443359375,60.45801526717557,-18.290076335877863,4.396946564885496,3166,381,-3,-6.107917866447365,2822.232889009392,-0.003942,False,,False,,,,,32
3042.009,3.7318165869996847,-0.89111328125,0.325927734375,-0.055908203125,59.75572519083969,-19.66412213740458,3.6030534351145036,3255,379,-6,-5.88791664574424,2822.991154520003,-0.007884,False,,False,,,,,32
3042.009,3.7338191549997646,-0.89111328125,0.325927734375,-0.055908203125,59.75572519083969,-19.66412213740458,3.6030534351145036,3255,379,-6,-5.88791664574424,2822.991154520003,-0.007884,False,,False,,,,,32
3042.014,3.7358191669995904,-0.892333984375,0.336669921875,-0.06298828125,57.95419847328244,-18.9618320610687,4.122137404580153,3341,370,-1,-5.67533119652549,2823.7284287814473,-0.001314,False,,False,,,,,32
3042.014,3.7378203099997336,-0.892333984375,0.336669921875,-0.06298828125,57.95419847328244,-18.9618320610687,4.122137404580153,3341,370,-1,-5.67533119652549,2823.7284287814473,-0.001314,False,,False,,,,,32
3042.014,3.739821729999676,-0.892333984375,0.336669921875,-0.06298828125,57.95419847328244,-18.9618320610687,4.122137404580153,3341,370,-1,-5.67533119652549,2823.7284287814473,-0.001314,False,,False,,,,,32
3042.0190000000002,3.7418227609996393,-0.877685546875,0.322509765625,-0.064697265625,56.2442748091603,-19.938931297709924,3.847328244274809,3421,353,-1,-5.47757729027549,2824.4213343255624,-0.001314,False,,False,,,,,32
