state_time,loop_time,accel_x,accel_y,accel_z,gyro_x,gyro_y,gyro_z,motor_angle,motor_velocity,motor_current,hip_angle,hip_velocity,hip_torque_from_current,did_heel_strike,gait_phase,did_toe_off,commanded_current,commanded_position,commanded_torque,commanded_voltage,temperature
504.298,1.8257186859998455,-0.937255859375,0.334228515625,-0.014404296875,0.9770992366412213,0.2748091603053435,-0.33587786259541985,5729,5,1,125.88134765625,0.016603395022257376,0.001314,False,,False,,,,,30
504.303,1.8277243589998307,-0.936767578125,0.33740234375,-0.0166015625,1.129770992366412,0.4580152671755725,-0.24427480916030533,5729,4,0,125.88134765625,0.03690554406827076,0.0,False,,False,,,,,30
504.303,1.8297245679998468,-0.936767578125,0.33740234375,-0.0166015625,1.129770992366412,0.4580152671755725,-0.24427480916030533,5729,4,0,125.88134765625,0.03690554406827076,0.0,False,,False,,,,,30
504.308,1.8320643279998876,-0.9365234375,0.3369140625,-0.01708984375,0.8549618320610687,0.366412213740458,-0.21374045801526717,5729,9,-7,125.88134765625,0.048801541528397836,-0.009198,False,,False,,,,,30
504.308,1.8341188889999103,-0.9365234375,0.3369140625,-0.01708984375,0.8549618320610687,0.366412213740458,-0.21374045801526717,5729,9,-7,125.88134765625,0.048801541528397836,-0.009198,False,,False,,,,,30
504.308,1.8361196719999953,-0.9365234375,0.3369140625,-0.01708984375,0.8549618320610687,0.366412213740458,-0.21374045801526717,5729,9,-7,125.88134765625,0.048801541528397836,-0.009198,False,,False,,,,,30
504.313,1.8381245859998216,-0.9384765625,0.332763671875,-0.015869140625,0.7633587786259541,0.33587786259541985,-0.24427480916030533,5728,-1,-2,125.859375,0.042138085167075054,-0.002628,False,,False,,,,,30
504.313,1.8401214799998797,-0.9384765625,0.332763671875,-0.015869140625,0.7633587786259541,0.33587786259541985,-0.24427480916030533,5728,-1,-2,125.859375,0.042138085167075054,-0.002628,False,,False,,,,,30
504.318,1.8422112260000176,-0.935791015625,0.3349609375,-0.017333984375,0.8854961832061068,0.366412213740458,-0.0916030534351145,5726,-4,-5,125.8154296875,-0.02771325150872888,-0.0065699999999999995,False,,False,,,,,30
504.318,1.844211082999891,-0.935791015625,0.3349609375,-0.017333984375,0.8854961832061068,0.366412213740458,-0.0916030534351145,5726,-4,-5,125.8154296875,-0.02771325150872888,-0.0065699999999999995,False,,False,,,,,30
504.32300000000004,1.8469298739998976,-0.9365234375,0.333740234375,-0.018798828125,0.5190839694656488,0.4580152671755725,-0.15267175572519084,5727,0,1,125.83740234375,-0.14945240498643172,0.001314,False,,False,,,,,30
504.32300000000004,1.8489299729999402,-0.9365234375,0.333740234375,-0.018798828125,0.5190839694656488,0.4580152671755725,-0.15267175572519084,5727,0,1,125.83740234375,-0.14945240498643172,0.001314,False,,False,,,,,30
504.32300000000004,1.8509283490000144,-0.9365234375,0.333740234375,-0.018798828125,0.5190839694656488,0.4580152671755725,-0.15267175572519084,5727,0,1,125.83740234375,-0.14945240498643172,0.001314,False,,False,,,,,30
504.32800000000003,1.8529331879999518,-0.9345703125,0.3330078125,-0.01806640625,0.6717557251908397,0.42748091603053434,-0.183206106870229,5728,0,2,125.859375,-0.23328952187284757,0.002628,False,,False,,,,,30
504.32800000000003,1.8549339899998358,-0.9345703125,0.3330078125,-0.01806640625,0.6717557251908397,0.42748091603053434,-0.183206106870229,5728,0,2,125.859375,-0.23328952187284757,0.002628,False,,False,,,,,30
504.333,1.8569353289999526,-0.935546875,0.337158203125,-0.0185546875,0.549618320610687,0.549618320610687,-0.12213740458015267,5729,3,4,125.88134765625,-0.2364344460489056,0.005256,False,,False,,,,,30
504.333,1.8589339089999157,-0.935546875,0.337158203125,-0.0185546875,0.549618320610687,0.549618320610687,-0.12213740458015267,5729,3,4,125.88134765625,-0.2364344460489056,0.005256,False,,False,,,,,30
504.338,1.8617458839999017,-0.933837890625,0.33544921875,-0.016845703125,0.7022900763358778,0.732824427480916,0.0,5727,-1,7,125.83740234375,-0.21972656521778625,0.009198,False,,False,,,,,30
504.338,1.8637976479999452,-0.933837890625,0.33544921875,-0.016845703125,0.7022900763358778,0.732824427480916,0.0,5727,-1,7,125.83740234375,-0.21972656521778625,0.009198,False,,False,,,,,30
504.338,1.8658006539999406,-0.933837890625,0.33544921875,-0.016845703125,0.7022900763358778,0.732824427480916,0.0,5727,-1,7,125.83740234375,-0.21972656521778625,0.009198,False,,False,,,,,30
504.343,1.8678006039999673,-0.935302734375,0.336181640625,-0.01708984375,0.7022900763358778,0.7938931297709924,-0.12213740458015267,5727,5,-2,125.83740234375,-0.250302693180996,-0.002628,False,,False,,,,,30
504.343,1.8698322759998973,-0.935302734375,0.336181640625,-0.01708984375,0.7022900763358778,0.7938931297709924,-0.12213740458015267,5727,5,-2,125.83740234375,-0.250302693180996,-0.002628,False,,False,,,,,30
504.348,1.871806208999942,-0.938720703125,0.334716796875,-0.01708984375,0.6412213740458015,0.8244274809160305,-0.12213740458015267,5727,2,-3,125.83740234375,-0.304105585119961,-0.003942,False,,False,,,,,30
504.348,1.8738078629999109,-0.938720703125,0.334716796875,-0.01708984375,0.6412213740458015,0.8244274809160305,-0.12213740458015267,5727,2,-3,125.83740234375,-0.304105585119961,-0.003942,False,,False,,,,,30
504.348,1.8758075169998847,-0.938720703125,0.334716796875,-0.01708984375,0.6412213740458015,0.8244274809160305,-0.12213740458015267,5727,2,-3,125.83740234375,-0.304105585119961,-0.003942,False,,False,,,,,30
504.353,1.877809225999954,-0.939453125,0.333984375,-0.0185546875,0.6106870229007634,0.9465648854961831,0.030534351145038167,5726,-4,-1,125.8154296875,-0.3606584773258267,-0.001314,False,,False,,,,,30
504.353,1.8798105280000073,-0.939453125,0.333984375,-0.0185546875,0.6106870229007634,0.9465648854961831,0.030534351145038167,5726,-4,-1,125.8154296875,-0.3606584773258267,-0.001314,False,,False,,,,,30
504.358,1.8818151819998548,-0.93896484375,0.33740234375,-0.01953125,0.5190839694656488,0.916030534351145,-0.15267175572519084,5727,-6,0,125.83740234375,-0.41869435303881986,0.0,False,,False,,,,,30
504.358,1.883813150999913,-0.93896484375,0.33740234375,-0.01953125,0.5190839694656488,0.916030534351145,-0.15267175572519084,5727,-6,0,125.83740234375,-0.41869435303881986,0.0,False,,False,,,,,30
504.358,1.8858140459999504,-0.93896484375,0.33740234375,-0.01953125,0.5190839694656488,0.916030534351145,-0.15267175572519084,5727,-6,0,125.83740234375,-0.41869435303881986,0.0,False,,False,,,,,30
504.363,1.8878153109999403,-0.93896484375,0.337890625,-0.01953125,0.5801526717557252,0.8854961832061068,-0.12213740458015267,5727,-2,8,125.83740234375,-0.44529982031017423,0.010512,False,,False,,,,,30
504.363,1.8898178719998668,-0.93896484375,0.337890625,-0.01953125,0.5801526717557252,0.8854961832061068,-0.12213740458015267,5727,-2,8,125.83740234375,-0.44529982031017423,0.010512,False,,False,,,,,30
504.368,1.8918181929998354,-0.9375,0.3388671875,-0.018798828125,0.48854961832061067,0.8549618320610687,0.0,5728,1,0,125.859375,-0.4292913076317397,0.0,False,,False,,,,,30
504.368,1.8938195139999152,-0.9375,0.3388671875,-0.018798828125,0.48854961832061067,0.8549618320610687,0.0,5728,1,0,125.859375,-0.4292913076317397,0.0,False,,False,,,,,30
504.368,1.8958200009999473,-0.9375,0.3388671875,-0.018798828125,0.48854961832061067,0.8549618320610687,0.0,5728,1,0,125.859375,-0.4292913076317397,0.0,False,,False,,,,,30
504.373,1.8978221179997945,-0.94287109375,0.341796875,-0.020751953125,0.549618320610687,0.8854961832061068,-0.12213740458015267,5729,0,4,125.88134765625,-0.36192347119522994,0.005256,False,,False,,,,,30
504.373,1.8999653809999018,-0.94287109375,0.341796875,-0.020751953125,0.549618320610687,0.8854961832061068,-0.12213740458015267,5729,0,4,125.88134765625,-0.36192347119522994,0.005256,False,,False,,,,,30
504.378,1.9019670529999075,-0.941162109375,0.338623046875,-0.0205078125,0.4580152671755725,0.6717557251908397,0.030534351145038167,5728,1,7,125.859375,-0.2684500832741493,0.009198,False,,False,,,,,30
504.378,1.9039686889998393,-0.941162109375,0.338623046875,-0.0205078125,0.4580152671755725,0.6717557251908397,0.030534351145038167,5728,1,7,125.859375,-0.2684500832741493,0.009198,False,,False,,,,,30
504.378,1.9059674729999188,-0.941162109375,0.338623046875,-0.0205078125,0.4580152671755725,0.6717557251908397,0.030534351145038167,5728,1,7,125.859375,-0.2684500832741493,0.009198,False,,False,,,,,30
504.38300000000004,1.9079702749997978,-0.9404296875,0.3408203125,-0.017822265625,0.5190839694656488,0.7633587786259541,0.030534351145038167,5728,-5,1,125.859375,-0.20222250780369988,0.001314,False,,False,,,,,30
504.38300000000004,1.9099722439998459,-0.9404296875,0.3408203125,-0.017822265625,0.5190839694656488,0.7633587786259541,0.030534351145038167,5728,-5,1,125.859375,-0.20222250780369988,0.001314,False,,False,,,,,30
504.38800000000003,1.9119733239999732,-0.93359375,0.34033203125,-0.019287109375,0.48854961832061067,0.6106870229007634,0.0,5728,0,-1,125.859375,-0.15976404733392122,-0.001314,False,,False,,,,,30
504.38800000000003,1.913974588999963,-0.93359375,0.34033203125,-0.019287109375,0.48854961832061067,0.6106870229007634,0.0,5728,0,-1,125.859375,-0.15976404733392122,-0.001314,False,,False,,,,,30
504.38800000000003,1.915974186999847,-0.93359375,0.34033203125,-0.019287109375,0.48854961832061067,0.6106870229007634,0.0,5728,0,-1,125.859375,-0.15976404733392122,-0.001314,False,,False,,,,,30
504.39300000000003,1.9179774149999957,-0.935791015625,0.341552734375,-0.01953125,0.48854961832061067,0.4580152671755725,0.0916030534351145,5727,-2,-3,125.83740234375,-0.13781973789504132,-0.003942,False,,False,,,,,30
504.39300000000003,1.9199769399999695,-0.935791015625,0.341552734375,-0.01953125,0.48854961832061067,0.4580152671755725,0.0916030534351145,5727,-2,-3,125.83740234375,-0.13781973789504132,-0.003942,False,,False,,,,,30
504.398,1.9219810199999756,-0.93505859375,0.340087890625,-0.0185546875,0.7938931297709924,0.5801526717557252,0.061068702290076333,5727,-3,-5,125.83740234375,-0.1492829930846511,-0.0065699999999999995,False,,False,,,,,30
504.398,1.9239819329998227,-0.93505859375,0.340087890625,-0.0185546875,0.7938931297709924,0.5801526717557252,0.061068702290076333,5727,-3,-5,125.83740234375,-0.1492829930846511,-0.0065699999999999995,False,,False,,,,,30
504.398,1.925982623999971,-0.93505859375,0.340087890625,-0.0185546875,0.7938931297709924,0.5801526717557252,0.061068702290076333,5727,-3,-5,125.83740234375,-0.1492829930846511,-0.0065699999999999995,False,,False,,,,,30
504.403,1.9281417569998212,-0.9326171875,0.339599609375,-0.018798828125,0.8244274809160305,0.5801526717557252,0.061068702290076333,5728,-2,-7,125.859375,-0.15671719816686616,-0.009198,False,,False,,,,,30
504.403,1.9301411519998055,-0.9326171875,0.339599609375,-0.018798828125,0.8244274809160305,0.5801526717557252,0.061068702290076333,5728,-2,-7,125.859375,-0.15671719816686616,-0.009198,False,,False,,,,,30
504.408,1.9321448059999966,-0.933349609375,0.338623046875,-0.0185546875,0.8244274809160305,0.48854961832061067,0.061068702290076333,5729,7,4,125.88134765625,-0.11292388134993431,0.005256,False,,False,,,,,30
504.408,1.9353256819999842,-0.933349609375,0.338623046875,-0.0185546875,0.8244274809160305,0.48854961832061067,0.061068702290076333,5729,7,4,125.88134765625,-0.11292388134993431,0.005256,False,,False,,,,,30
504.413,1.9373264839998683,-0.9326171875,0.338623046875,-0.017822265625,0.9465648854961831,0.6106870229007634,-0.061068702290076333,5728,3,0,125.859375,-0.042793837538609464,0.0,False,,False,,,,,30
504.413,1.939324471999953,-0.9326171875,0.338623046875,-0.017822265625,0.9465648854961831,0.6106870229007634,-0.061068702290076333,5728,3,0,125.859375,-0.042793837538609464,0.0,False,,False,,,,,30
504.418,1.9413294589999168,-0.93212890625,0.33984375,-0.01806640625,0.9770992366412213,0.549618320610687,0.0,5728,-1,-6,125.859375,0.000622098348562708,-0.007884,False,,False,,,,,30
504.418,1.9433280019998165,-0.93212890625,0.33984375,-0.01806640625,0.9770992366412213,0.549618320610687,0.0,5728,-1,-6,125.859375,0.000622098348562708,-0.007884,False,,False,,,,,30
504.418,1.9453324889998385,-0.93212890625,0.33984375,-0.01806640625,0.9770992366412213,0.549618320610687,0.0,5728,-1,-6,125.859375,0.000622098348562708,-0.007884,False,,False,,,,,30
504.423,1.9473338469999817,-0.929443359375,0.340576171875,-0.021484375,1.129770992366412,0.6717557251908397,0.030534351145038167,5727,-1,0,125.83740234375,0.00512892588722182,0.0,False,,False,,,,,30
504.423,1.9493321679999553,-0.929443359375,0.340576171875,-0.021484375,1.129770992366412,0.6717557251908397,0.030534351145038167,5727,-1,0,125.83740234375,0.00512892588722182,0.0,False,,False,,,,,30
504.428,1.9513362099999085,-0.93603515625,0.338134765625,-0.0185546875,1.2213740458015268,0.4580152671755725,-0.061068702290076333,5728,0,-1,125.859375,-0.007087934731261923,-0.001314,False,,False,,,,,30
504.428,1.9533346789999086,-0.93603515625,0.338134765625,-0.0185546875,1.2213740458015268,0.4580152671755725,-0.061068702290076333,5728,0,-1,125.859375,-0.007087934731261923,-0.001314,False,,False,,,,,30
504.428,1.9553391479998936,-0.93603515625,0.338134765625,-0.0185546875,1.2213740458015268,0.4580152671755725,-0.061068702290076333,5728,0,-1,125.859375,-0.007087934731261923,-0.001314,False,,False,,,,,30
504.433,1.95734043199991,-0.93115234375,0.33740234375,-0.0185546875,1.282442748091603,0.7633587786259541,0.0916030534351145,5727,-4,-4,125.83740234375,-0.017212985308227888,-0.005256,False,,False,,,,,30
504.433,1.959415713999988,-0.93115234375,0.33740234375,-0.0185546875,1.282442748091603,0.7633587786259541,0.0916030534351145,5727,-4,-4,125.83740234375,-0.017212985308227888,-0.005256,False,,False,,,,,30
504.433,1.9614171089999672,-0.93115234375,0.33740234375,-0.0185546875,1.282442748091603,0.7633587786259541,0.0916030534351145,5727,-4,-4,125.83740234375,-0.017212985308227888,-0.005256,False,,False,,,,,30
504.438,1.963562760999821,-0.93310546875,0.337158203125,-0.0185546875,1.282442748091603,0.549618320610687,0.12213740458015267,5727,-2,0,125.83740234375,-0.041355724661388545,0.0,False,,False,,,,,30
504.438,1.9655683039998166,-0.93310546875,0.337158203125,-0.0185546875,1.282442748091603,0.549618320610687,0.12213740458015267,5727,-2,0,125.83740234375,-0.041355724661388545,0.0,False,,False,,,,,30
504.443,1.9675695319999704,-0.9345703125,0.33642578125,-0.019775390625,1.2213740458015268,0.6412213740458015,0.15267175572519084,5727,-5,0,125.83740234375,-0.07688406659965656,0.0,False,,False,,,,,30
504.443,1.969570203999865,-0.9345703125,0.33642578125,-0.019775390625,1.2213740458015268,0.6412213740458015,0.15267175572519084,5727,-5,0,125.83740234375,-0.07688406659965656,0.0,False,,False,,,,,30
504.44800000000004,1.971572450999929,-0.931884765625,0.3369140625,-0.015625,1.1603053435114503,0.549618320610687,0.0916030534351145,5727,4,0,125.83740234375,-0.10551394415873831,0.0,False,,False,,,,,30
504.44800000000004,1.9735710309998922,-0.931884765625,0.3369140625,-0.015625,1.1603053435114503,0.549618320610687,0.0916030534351145,5727,4,0,125.83740234375,-0.10551394415873831,0.0,False,,False,,,,,30
504.44800000000004,1.975574684999856,-0.931884765625,0.3369140625,-0.015625,1.1603053435114503,0.549618320610687,0.0916030534351145,5727,4,0,125.83740234375,-0.10551394415873831,0.0,False,,False,,,,,30
504.45300000000003,1.97757687599983,-0.932373046875,0.333740234375,-0.01806640625,1.3435114503816794,0.48854961832061067,0.21374045801526717,5728,3,2,125.859375,-0.11203820812948476,0.002628,False,,False,,,,,30
504.45300000000003,1.979577825999968,-0.932373046875,0.333740234375,-0.01806640625,1.3435114503816794,0.48854961832061067,0.21374045801526717,5728,3,2,125.859375,-0.11203820812948476,0.002628,False,,False,,,,,30
504.458,1.981579813999815,-0.934814453125,0.333984375,-0.018798828125,1.2519083969465647,0.3053435114503817,0.183206106870229,5727,-1,-1,125.83740234375,-0.09996154278943557,-0.001314,False,,False,,,,,30
504.458,1.9835806709997996,-0.934814453125,0.333984375,-0.018798828125,1.2519083969465647,0.3053435114503817,0.183206106870229,5727,-1,-1,125.83740234375,-0.09996154278943557,-0.001314,False,,False,,,,,30
504.458,1.9855799359997945,-0.934814453125,0.333984375,-0.018798828125,1.2519083969465647,0.3053435114503817,0.183206106870229,5727,-1,-1,125.83740234375,-0.09996154278943557,-0.001314,False,,False,,,,,30
504.463,1.9875835529999222,-0.932861328125,0.333251953125,-0.017578125,1.129770992366412,0.3053435114503817,0.15267175572519084,5728,5,2,125.859375,-0.08840306467148983,0.002628,False,,False,,,,,30
504.463,1.9895865409998805,-0.932861328125,0.333251953125,-0.017578125,1.129770992366412,0.3053435114503817,0.15267175572519084,5728,5,2,125.859375,-0.08840306467148983,0.002628,False,,False,,,,,30
504.468,1.9915870840000025,-0.9365234375,0.33056640625,-0.01806640625,1.099236641221374,0.24427480916030533,0.12213740458015267,5728,2,5,125.859375,-0.061530255299050554,0.0065699999999999995,False,,False,,,,,30
504.468,1.9935879039999236,-0.9365234375,0.33056640625,-0.01806640625,1.099236641221374,0.24427480916030533,0.12213740458015267,5728,2,5,125.859375,-0.061530255299050554,0.0065699999999999995,False,,False,,,,,30
504.468,1.9955900209999982,-0.9365234375,0.33056640625,-0.01806640625,1.099236641221374,0.24427480916030533,0.12213740458015267,5728,2,5,125.859375,-0.061530255299050554,0.0065699999999999995,False,,False,,,,,30
504.473,1.9975905459998557,-0.933837890625,0.32763671875,-0.01318359375,1.1603053435114503,0.3053435114503817,0.15267175572519084,5727,7,7,125.83740234375,-0.03814146042184187,0.009198,False,,False,,,,,30
504.473,1.9995927179998034,-0.933837890625,0.32763671875,-0.01318359375,1.1603053435114503,0.3053435114503817,0.15267175572519084,5727,7,7,125.83740234375,-0.03814146042184187,0.009198,False,,False,,,,,30
504.478,2.00159405699992,-0.93212890625,0.3291015625,-0.019287109375,1.0381679389312977,0.3969465648854962,0.24427480916030533,5727,0,-5,125.83740234375,-0.0498394308068347,-0.0065699999999999995,False,,False,,,,,30
504.478,2.0035929519999627,-0.93212890625,0.3291015625,-0.019287109375,1.0381679389312977,0.3969465648854962,0.24427480916030533,5727,0,-5,125.83740234375,-0.0498394308068347,-0.0065699999999999995,False,,False,,,,,30
504.478,2.005598179999879,-0.93212890625,0.3291015625,-0.019287109375,1.0381679389312977,0.3969465648854962,0.24427480916030533,5727,0,-5,125.83740234375,-0.0498394308068347,-0.0065699999999999995,False,,False,,,,,30
504.483,2.0075989819999904,-0.9326171875,0.328857421875,-0.018310546875,1.0076335877862594,0.183206106870229,0.061068702290076333,5727,0,0,125.83740234375,-0.07482633938393207,0.0,False,,False,,,,,30
504.483,2.0095984329998373,-0.9326171875,0.328857421875,-0.018310546875,1.0076335877862594,0.183206106870229,0.061068702290076333,5727,0,0,125.83740234375,-0.07482633938393207,0.0,False,,False,,,,,30
504.488,2.0116015309999966,-0.93310546875,0.3271484375,-0.020751953125,0.8854961832061068,0.5190839694656488,0.0,5726,1,0,125.8154296875,-0.1105765246804992,0.0,False,,False,,,,,30
504.488,2.013601611000013,-0.93310546875,0.3271484375,-0.020751953125,0.8854961832061068,0.5190839694656488,0.0,5726,1,0,125.8154296875,-0.1105765246804992,0.0,False,,False,,,,,30
504.488,2.015602949999902,-0.93310546875,0.3271484375,-0.020751953125,0.8854961832061068,0.5190839694656488,0.0,5726,1,0,125.8154296875,-0.1105765246804992,0.0,False,,False,,,,,30
504.493,2.017605881999998,-0.935791015625,0.328125,-0.01806640625,0.6106870229007634,0.5190839694656488,0.183206106870229,5727,0,0,125.83740234375,-0.1548196246130221,0.0,False,,False,,,,,30
504.493,2.0196049809999295,-0.935791015625,0.328125,-0.01806640625,0.6106870229007634,0.5190839694656488,0.183206106870229,5727,0,0,125.83740234375,-0.1548196246130221,0.0,False,,False,,,,,30
504.498,2.0216087269998297,-0.93896484375,0.327880859375,-0.020263671875,0.549618320610687,0.5801526717557252,0.15267175572519084,5725,-11,0,125.79345703125,-0.2055318991756959,0.0,False,,False,,,,,30
504.498,2.0236086400000204,-0.93896484375,0.327880859375,-0.020263671875,0.549618320610687,0.5801526717557252,0.15267175572519084,5725,-11,0,125.79345703125,-0.2055318991756959,0.0,False,,False,,,,,30
504.498,2.025651663999952,-0.93896484375,0.327880859375,-0.020263671875,0.549618320610687,0.5801526717557252,0.15267175572519084,5725,-11,0,125.79345703125,-0.2055318991756959,0.0,False,,False,,,,,30
504.503,2.0276538179998624,-0.93603515625,0.3271484375,-0.020263671875,0.732824427480916,0.5190839694656488,0.12213740458015267,5726,-1,-3,125.8154296875,-0.27684098580296423,-0.003942,False,,False,,,,,30
504.503,2.029786710999815,-0.93603515625,0.3271484375,-0.020263671875,0.732824427480916,0.5190839694656488,0.12213740458015267,5726,-1,-3,125.8154296875,-0.27684098580296423,-0.003942,False,,False,,,,,30
504.50800000000004,2.031788160999895,-0.936767578125,0.328857421875,-0.023681640625,0.24427480916030533,0.6717557251908397,-0.15267175572519084,5727,0,-7,125.83740234375,-0.31661353257697583,-0.009198,False,,False,,,,,30
504.50800000000004,2.0338597219999883,-0.936767578125,0.328857421875,-0.023681640625,0.24427480916030533,0.6717557251908397,-0.15267175572519084,5727,0,-7,125.83740234375,-0.31661353257697583,-0.009198,False,,False,,,,,30
504.50800000000004,2.035843671999828,-0.936767578125,0.328857421875,-0.023681640625,0.24427480916030533,0.6717557251908397,-0.15267175572519084,5727,0,-7,125.83740234375,-0.31661353257697583,-0.009198,False,,False,,,,,30
504.51300000000003,2.0378443629999765,-0.93994140625,0.32958984375,-0.020751953125,0.4580152671755725,0.8549618320610687,-0.15267175572519084,5727,-6,2,125.83740234375,-0.29757690766227374,0.002628,False,,False,,,,,30
504.51300000000003,2.0398453319999135,-0.93994140625,0.32958984375,-0.020751953125,0.4580152671755725,0.8549618320610687,-0.15267175572519084,5727,-6,2,125.83740234375,-0.29757690766227374,0.002628,False,,False,,,,,30
504.51800000000003,2.0420476679998956,-0.94189453125,0.327392578125,-0.0224609375,0.21374045801526717,0.9465648854961831,-0.0916030534351145,5727,3,0,125.83740234375,-0.26141328684410675,0.0,False,,False,,,,,30
504.51800000000003,2.044043469999906,-0.94189453125,0.327392578125,-0.0224609375,0.21374045801526717,0.9465648854961831,-0.0916030534351145,5727,3,0,125.83740234375,-0.26141328684410675,0.0,False,,False,,,,,30
504.51800000000003,2.046047531999875,-0.94189453125,0.327392578125,-0.0224609375,0.21374045801526717,0.9465648854961831,-0.0916030534351145,5727,3,0,125.83740234375,-0.26141328684410675,0.0,False,,False,,,,,30
504.523,2.0480500929998016,-0.940185546875,0.335205078125,-0.024658203125,0.3053435114503817,0.8244274809160305,-0.12213740458015267,5726,-5,-4,125.8154296875,-0.2432663369721926,-0.005256,False,,False,,,,,30
504.523,2.0500513029999183,-0.940185546875,0.335205078125,-0.024658203125,0.3053435114503817,0.8244274809160305,-0.12213740458015267,5726,-5,-4,125.8154296875,-0.2432663369721926,-0.005256,False,,False,,,,,30
504.528,2.052053845999808,-0.943115234375,0.330322265625,-0.02587890625,0.183206106870229,0.916030534351145,-0.0916030534351145,5727,-1,-4,125.83740234375,-0.24046550332481262,-0.005256,False,,False,,,,,30
504.528,2.0541309979998914,-0.943115234375,0.330322265625,-0.02587890625,0.183206106870229,0.916030534351145,-0.0916030534351145,5727,-1,-4,125.83740234375,-0.24046550332481262,-0.005256,False,,False,,,,,30
504.528,2.05612998599986,-0.943115234375,0.330322265625,-0.02587890625,0.183206106870229,0.916030534351145,-0.0916030534351145,5727,-1,-4,125.83740234375,-0.24046550332481262,-0.005256,False,,False,,,,,30
504.533,2.0581334359999346,-0.941162109375,0.332763671875,-0.023681640625,0.2748091603053435,0.6717557251908397,0.030534351145038167,5727,0,-1,125.83740234375,-0.21872154631861196,-0.001314,False,,False,,,,,30
504.533,2.0601321829999506,-0.941162109375,0.332763671875,-0.023681640625,0.2748091603053435,0.6717557251908397,0.030534351145038167,5727,0,-1,125.83740234375,-0.21872154631861196,-0.001314,False,,False,,,,,30
504.538,2.062136002999978,-0.937744140625,0.332763671875,-0.02197265625,0.33587786259541985,0.7633587786259541,0.0,5728,2,0,125.859375,-0.16551816017261453,0.0,False,,False,,,,,30
504.538,2.0641370649998407,-0.937744140625,0.332763671875,-0.02197265625,0.33587786259541985,0.7633587786259541,0.0,5728,2,0,125.859375,-0.16551816017261453,0.0,False,,False,,,,,30
504.543,2.066137662999836,-0.938720703125,0.3330078125,-0.020263671875,0.3053435114503817,0.7022900763358778,-0.21374045801526717,5727,2,-2,125.83740234375,-0.10266385266725225,-0.002628,False,,False,,,,,30
504.543,2.0681376509999154,-0.938720703125,0.3330078125,-0.020263671875,0.3053435114503817,0.7022900763358778,-0.21374045801526717,5727,2,-2,125.83740234375,-0.10266385266725225,-0.002628,False,,False,,,,,30
504.543,2.070141379000006,-0.938720703125,0.3330078125,-0.020263671875,0.3053435114503817,0.7022900763358778,-0.21374045801526717,5727,2,-2,125.83740234375,-0.10266385266725225,-0.002628,False,,False,,,,,30
504.548,2.072142291999853,-0.9404296875,0.334716796875,-0.02197265625,0.21374045801526717,0.732824427480916,-0.183206106870229,5725,1,0,125.79345703125,-0.09630289439628106,0.0,False,,False,,,,,30
504.548,2.0741437609999593,-0.9404296875,0.334716796875,-0.02197265625,0.21374045801526717,0.732824427480916,-0.183206106870229,5725,1,0,125.79345703125,-0.09630289439628106,0.0,False,,False,,,,,30
504.548,2.0761461739998595,-0.9404296875,0.334716796875,-0.02197265625,0.21374045801526717,0.732824427480916,-0.183206106870229,5725,1,0,125.79345703125,-0.09630289439628106,0.0,False,,False,,,,,30
504.553,2.0781484389999605,-0.937255859375,0.33642578125,-0.020263671875,0.24427480916030533,0.549618320610687,-0.0916030534351145,5726,-6,-1,125.8154296875,-0.15324487357720515,-0.001314,False,,False,,,,,30
504.553,2.0801485559998127,-0.937255859375,0.33642578125,-0.020263671875,0.24427480916030533,0.549618320610687,-0.0916030534351145,5726,-6,-1,125.8154296875,-0.15324487357720515,-0.001314,False,,False,,,,,30
504.558,2.082151228999919,-0.937744140625,0.334228515625,-0.01953125,0.33587786259541985,0.48854961832061067,-0.15267175572519084,5725,-11,-7,125.79345703125,-0.21461122982502442,-0.009198,False,,False,,,,,30
504.558,2.0841529749998244,-0.937744140625,0.334228515625,-0.01953125,0.33587786259541985,0.48854961832061067,-0.15267175572519084,5725,-11,-7,125.79345703125,-0.21461122982502442,-0.009198,False,,False,,,,,30
504.558,2.0861526479998247,-0.937744140625,0.334228515625,-0.01953125,0.33587786259541985,0.48854961832061067,-0.15267175572519084,5725,-11,-7,125.79345703125,-0.21461122982502442,-0.009198,False,,False,,,,,30
504.563,2.08815578299982,-0.935546875,0.333740234375,-0.021484375,0.33587786259541985,0.549618320610687,-0.183206106870229,5726,-4,0,125.8154296875,-0.2628770031843255,0.0,False,,False,,,,,30
504.563,2.090155103999905,-0.935546875,0.333740234375,-0.021484375,0.33587786259541985,0.549618320610687,-0.183206106870229,5726,-4,0,125.8154296875,-0.2628770031843255,0.0,False,,False,,,,,30
504.568,2.092158090999874,-0.9365234375,0.33740234375,-0.022216796875,0.42748091603053434,0.5190839694656488,0.061068702290076333,5727,6,0,125.83740234375,-0.2676448107020526,0.0,False,,False,,,,,30
504.568,2.09415937499989,-0.9365234375,0.33740234375,-0.022216796875,0.42748091603053434,0.5190839694656488,0.061068702290076333,5727,6,0,125.83740234375,-0.2676448107020526,0.0,False,,False,,,,,30
504.568,2.0961597699999857,-0.9365234375,0.33740234375,-0.022216796875,0.42748091603053434,0.5190839694656488,0.061068702290076333,5727,6,0,125.83740234375,-0.2676448107020526,0.0,False,,False,,,,,30
504.57300000000004,2.0981603499999437,-0.9375,0.33544921875,-0.02099609375,0.33587786259541985,0.7022900763358778,-0.0916030534351145,5725,-4,2,125.79345703125,-0.2518434420233918,0.002628,False,,False,,,,,30
504.57300000000004,2.1001629109998703,-0.9375,0.33544921875,-0.02099609375,0.33587786259541985,0.7022900763358778,-0.0916030534351145,5725,-4,2,125.79345703125,-0.2518434420233918,0.002628,False,,False,,,,,30
504.57800000000003,2.1021652129998074,-0.939453125,0.3359375,-0.021240234375,0.24427480916030533,0.6412213740458015,-0.12213740458015267,5726,-1,-5,125.8154296875,-0.2667976243354646,-0.0065699999999999995,False,,False,,,,,30
504.57800000000003,2.104167033999829,-0.939453125,0.3359375,-0.021240234375,0.24427480916030533,0.6412213740458015,-0.12213740458015267,5726,-1,-5,125.8154296875,-0.2667976243354646,-0.0065699999999999995,False,,False,,,,,30
504.57800000000003,2.106166094999935,-0.939453125,0.3359375,-0.021240234375,0.24427480916030533,0.6412213740458015,-0.12213740458015267,5726,-1,-5,125.8154296875,-0.2667976243354646,-0.0065699999999999995,False,,False,,,,,30
504.583,2.1081733419998727,-0.936767578125,0.3359375,-0.01953125,0.21374045801526717,0.732824427480916,0.0916030534351145,5726,-7,-1,125.8154296875,-0.2754519672791769,-0.001314,False,,False,,,,,30
504.583,2.110169439999936,-0.936767578125,0.3359375,-0.01953125,0.21374045801526717,0.732824427480916,0.0916030534351145,5726,-7,-1,125.8154296875,-0.2754519672791769,-0.001314,False,,False,,,,,30
504.588,2.1121722240000054,-0.93701171875,0.33642578125,-0.019287109375,0.2748091603053435,0.7633587786259541,-0.030534351145038167,5726,-4,0,125.8154296875,-0.26279123460783127,0.0,False,,False,,,,,30
504.588,2.1141728969998894,-0.93701171875,0.33642578125,-0.019287109375,0.2748091603053435,0.7633587786259541,-0.030534351145038167,5726,-4,0,125.8154296875,-0.26279123460783127,0.0,False,,False,,,,,30
504.588,2.116177235999885,-0.93701171875,0.33642578125,-0.019287109375,0.2748091603053435,0.7633587786259541,-0.030534351145038167,5726,-4,0,125.8154296875,-0.26279123460783127,0.0,False,,False,,,,,30
504.593,2.11817522299998,-0.94091796875,0.340576171875,-0.02099609375,0.48854961832061067,0.6412213740458015,-0.15267175572519084,5726,0,7,125.8154296875,-0.24838491689726522,0.009198,False,,False,,,,,30
504.593,2.120177080999838,-0.94091796875,0.340576171875,-0.02099609375,0.48854961832061067,0.6412213740458015,-0.15267175572519084,5726,0,7,125.8154296875,-0.24838491689726522,0.009198,False,,False,,,,,30
504.598,2.122181049999881,-0.93896484375,0.33837890625,-0.023193359375,0.5190839694656488,0.8549618320610687,0.15267175572519084,5727,5,1,125.83740234375,-0.21681033520444326,0.001314,False,,False,,,,,30
504.598,2.1250524119998317,-0.93896484375,0.33837890625,-0.023193359375,0.5190839694656488,0.8549618320610687,0.15267175572519084,5727,5,1,125.83740234375,-0.21681033520444326,0.001314,False,,False,,,,,30
504.603,2.1270573259998855,-0.938720703125,0.3408203125,-0.02099609375,0.3969465648854962,0.8244274809160305,0.12213740458015267,5727,5,-3,125.83740234375,-0.15540461764227526,-0.003942,False,,False,,,,,30
504.603,2.129059275999907,-0.938720703125,0.3408203125,-0.02099609375,0.3969465648854962,0.8244274809160305,0.12213740458015267,5727,5,-3,125.83740234375,-0.15540461764227526,-0.003942,False,,False,,,,,30
504.603,2.1310614669998813,-0.938720703125,0.3408203125,-0.02099609375,0.3969465648854962,0.8244274809160305,0.12213740458015267,5727,5,-3,125.83740234375,-0.15540461764227526,-0.003942,False,,False,,,,,30
504.608,2.133061527999871,-0.941650390625,0.337890625,-0.018798828125,0.549618320610687,0.8854961832061068,0.3053435114503817,5726,2,-1,125.8154296875,-0.10174557349282015,-0.001314,False,,False,,,,,30
504.608,2.1350604790000034,-0.941650390625,0.337890625,-0.018798828125,0.549618320610687,0.8854961832061068,0.3053435114503817,5726,2,-1,125.8154296875,-0.10174557349282015,-0.001314,False,,False,,,,,30
504.613,2.137063965999914,-0.937744140625,0.335693359375,-0.021728515625,0.5801526717557252,0.916030534351145,0.3053435114503817,5726,5,0,125.8154296875,-0.08718043124581193,0.0,False,,False,,,,,30
504.613,2.1390633049998087,-0.937744140625,0.335693359375,-0.021728515625,0.5801526717557252,0.916030534351145,0.3053435114503817,5726,5,0,125.8154296875,-0.08718043124581193,0.0,False,,False,,,,,30
504.613,2.1410666819999733,-0.937744140625,0.335693359375,-0.021728515625,0.5801526717557252,0.916030534351145,0.3053435114503817,5726,5,0,125.8154296875,-0.08718043124581193,0.0,False,,False,,,,,30
504.618,2.1430703730000005,-0.937255859375,0.337158203125,-0.01904296875,0.5801526717557252,1.0381679389312977,0.366412213740458,5726,4,-2,125.8154296875,-0.0896393949783726,-0.002628,False,,False,,,,,30
504.618,2.1450691189997997,-0.937255859375,0.337158203125,-0.01904296875,0.5801526717557252,1.0381679389312977,0.366412213740458,5726,4,-2,125.8154296875,-0.0896393949783726,-0.002628,False,,False,,,,,30
504.623,2.1470721439998215,-0.938232421875,0.33642578125,-0.021484375,0.7022900763358778,1.099236641221374,0.183206106870229,5725,-3,-7,125.79345703125,-0.10631500553208192,-0.009198,False,,False,,,,,30
504.623,2.1490727049999805,-0.938232421875,0.33642578125,-0.021484375,0.7022900763358778,1.099236641221374,0.183206106870229,5725,-3,-7,125.79345703125,-0.10631500553208192,-0.009198,False,,False,,,,,30
504.623,2.1510728219998327,-0.938232421875,0.33642578125,-0.021484375,0.7022900763358778,1.099236641221374,0.183206106870229,5725,-3,-7,125.79345703125,-0.10631500553208192,-0.009198,False,,False,,,,,30
504.628,2.153077234999955,-0.93798828125,0.33642578125,-0.021728515625,0.7022900763358778,0.916030534351145,0.33587786259541985,5725,0,-2,125.79345703125,-0.15056654953978982,-0.002628,False,,False,,,,,30
504.628,2.1550776299998233,-0.93798828125,0.33642578125,-0.021728515625,0.7022900763358778,0.916030534351145,0.33587786259541985,5725,0,-2,125.79345703125,-0.15056654953978982,-0.002628,False,,False,,,,,30
504.63300000000004,2.157080857999972,-0.9365234375,0.3369140625,-0.02197265625,0.8244274809160305,0.916030534351145,0.183206106870229,5725,0,-5,125.79345703125,-0.2013475064607676,-0.0065699999999999995,False,,False,,,,,30
504.63300000000004,2.15913589999991,-0.9365234375,0.3369140625,-0.02197265625,0.8244274809160305,0.916030534351145,0.183206106870229,5725,0,-5,125.79345703125,-0.2013475064607676,-0.0065699999999999995,False,,False,,,,,30
504.63800000000003,2.161138146999974,-0.93603515625,0.33984375,-0.023681640625,0.6717557251908397,0.8244274809160305,0.42748091603053434,5724,0,-10,125.771484375,-0.25685911825424473,-0.013139999999999999,False,,False,,,,,30
504.63800000000003,2.163139411999964,-0.93603515625,0.33984375,-0.023681640625,0.6717557251908397,0.8244274809160305,0.42748091603053434,5724,0,-10,125.771484375,-0.25685911825424473,-0.013139999999999999,False,,False,,,,,30
504.63800000000003,2.1651416579998113,-0.93603515625,0.33984375,-0.023681640625,0.6717557251908397,0.8244274809160305,0.42748091603053434,5724,0,-10,125.771484375,-0.25685911825424473,-0.013139999999999999,False,,False,,,,,30
504.64300000000003,2.167143867999812,-0.933837890625,0.338134765625,-0.01806640625,0.8549618320610687,0.8244274809160305,0.24427480916030533,5725,-2,-3,125.79345703125,-0.31552696599221797,-0.003942,False,,False,,,,,30
504.64300000000003,2.1691434849999496,-0.933837890625,0.338134765625,-0.01806640625,0.8549618320610687,0.8244274809160305,0.24427480916030533,5725,-2,-3,125.79345703125,-0.31552696599221797,-0.003942,False,,False,,,,,30
504.648,2.171205452999857,-0.9345703125,0.33935546875,-0.020263671875,0.9770992366412213,0.7633587786259541,0.33587786259541985,5726,8,-10,125.8154296875,-0.32824047372651766,-0.013139999999999999,False,,False,,,,,30
504.648,2.1732134960000167,-0.9345703125,0.33935546875,-0.020263671875,0.9770992366412213,0.7633587786259541,0.33587786259541985,5726,8,-10,125.8154296875,-0.32824047372651766,-0.013139999999999999,False,,False,,,,,30
504.648,2.1752081499998894,-0.9345703125,0.33935546875,-0.020263671875,0.9770992366412213,0.7633587786259541,0.33587786259541985,5726,8,-10,125.8154296875,-0.32824047372651766,-0.013139999999999999,False,,False,,,,,30
504.653,2.1772103589999006,-0.93408203125,0.34228515625,-0.021484375,1.0076335877862594,0.732824427480916,0.5190839694656488,5725,-1,-1,125.79345703125,-0.30229767411035646,-0.001314,False,,False,,,,,30
504.653,2.17921047599998,-0.93408203125,0.34228515625,-0.021484375,1.0076335877862594,0.732824427480916,0.5190839694656488,5725,-1,-1,125.79345703125,-0.30229767411035646,-0.001314,False,,False,,,,,30
504.658,2.1813055549998808,-0.93603515625,0.341552734375,-0.022216796875,1.1603053435114503,0.8549618320610687,0.3969465648854962,5725,0,-7,125.79345703125,-0.2921151272910846,-0.009198,False,,False,,,,,30
504.658,2.183305078999865,-0.93603515625,0.341552734375,-0.022216796875,1.1603053435114503,0.8549618320610687,0.3969465648854962,5725,0,-7,125.79345703125,-0.2921151272910846,-0.009198,False,,False,,,,,30
504.658,2.1853087889999188,-0.93603515625,0.341552734375,-0.022216796875,1.1603053435114503,0.8549618320610687,0.3969465648854962,5725,0,-7,125.79345703125,-0.2921151272910846,-0.009198,False,,False,,,,,30
504.663,2.187310534999824,-0.936767578125,0.3427734375,-0.02197265625,1.0381679389312977,0.7938931297709924,0.3053435114503817,5724,-1,-3,125.771484375,-0.3111898792938016,-0.003942,False,,False,,,,,30
504.663,2.1893088189999617,-0.936767578125,0.3427734375,-0.02197265625,1.0381679389312977,0.7938931297709924,0.3053435114503817,5724,-1,-3,125.771484375,-0.3111898792938016,-0.003942,False,,False,,,,,30
504.668,2.1913573059998726,-0.93798828125,0.33984375,-0.020751953125,1.2519083969465647,0.8549618320610687,0.5190839694656488,5725,-3,1,125.79345703125,-0.3385663817337661,0.001314,False,,False,,,,,30
504.668,2.193353329999809,-0.93798828125,0.33984375,-0.020751953125,1.2519083969465647,0.8549618320610687,0.5190839694656488,5725,-3,1,125.79345703125,-0.3385663817337661,0.001314,False,,False,,,,,30
504.668,2.195357262000016,-0.93798828125,0.33984375,-0.020751953125,1.2519083969465647,0.8549618320610687,0.5190839694656488,5725,-3,1,125.79345703125,-0.3385663817337661,0.001314,False,,False,,,,,30
504.673,2.19735824899999,-0.934814453125,0.340576171875,-0.018798828125,1.4351145038167938,0.549618320610687,0.3969465648854962,5724,-1,6,125.771484375,-0.3565807688268643,0.007884,False,,False,,,,,30
504.673,2.1993573659999583,-0.934814453125,0.340576171875,-0.018798828125,1.4351145038167938,0.549618320610687,0.3969465648854962,5724,-1,6,125.771484375,-0.3565807688268643,0.007884,False,,False,,,,,30
504.678,2.201362280000012,-0.937255859375,0.34033203125,-0.0224609375,1.3740458015267174,0.5801526717557252,0.24427480916030533,5724,-3,2,125.771484375,-0.382411987838588,0.002628,False,,False,,,,,30
504.678,2.203360544999896,-0.937255859375,0.34033203125,-0.0224609375,1.3740458015267174,0.5801526717557252,0.24427480916030533,5724,-3,2,125.771484375,-0.382411987838588,0.002628,False,,False,,,,,30
504.678,2.205365124999844,-0.937255859375,0.34033203125,-0.0224609375,1.3740458015267174,0.5801526717557252,0.24427480916030533,5724,-3,2,125.771484375,-0.382411987838588,0.002628,False,,False,,,,,30
504.683,2.2073665749999236,-0.936767578125,0.343017578125,-0.020751953125,1.465648854961832,0.7022900763358778,0.3969465648854962,5725,3,0,125.79345703125,-0.3984975127150103,0.0,False,,False,,,,,30
504.683,2.209365359000003,-0.936767578125,0.343017578125,-0.020751953125,1.465648854961832,0.7022900763358778,0.3969465648854962,5725,3,0,125.79345703125,-0.3984975127150103,0.0,False,,False,,,,,30
504.688,2.21137064200002,-0.93115234375,0.341796875,-0.023193359375,1.648854961832061,0.42748091603053434,0.33587786259541985,5724,-4,0,125.771484375,-0.39027550209527784,0.0,False,,False,,,,,30
504.688,2.21336790700002,-0.93115234375,0.341796875,-0.023193359375,1.648854961832061,0.42748091603053434,0.33587786259541985,5724,-4,0,125.771484375,-0.39027550209527784,0.0,False,,False,,,,,30
504.688,2.2153726169999572,-0.93115234375,0.341796875,-0.023193359375,1.648854961832061,0.42748091603053434,0.33587786259541985,5724,-4,0,125.771484375,-0.39027550209527784,0.0,False,,False,,,,,30
504.693,2.217374159999963,-0.935791015625,0.34130859375,-0.019287109375,1.7404580152671756,0.549618320610687,0.5190839694656488,5723,-2,0,125.74951171875,-0.40956955657116534,0.0,False,,False,,,,,30
504.693,2.219373831999974,-0.935791015625,0.34130859375,-0.019287109375,1.7404580152671756,0.549618320610687,0.5190839694656488,5723,-2,0,125.74951171875,-0.40956955657116534,0.0,False,,False,,,,,30
504.69800000000004,2.221377430999837,-0.928955078125,0.3388671875,-0.019775390625,1.7709923664122136,0.366412213740458,0.3969465648854962,5724,-5,-7,125.771484375,-0.45162004817827966,-0.009198,False,,False,,,,,30
504.69800000000004,2.223376991999885,-0.928955078125,0.3388671875,-0.019775390625,1.7709923664122136,0.366412213740458,0.3969465648854962,5724,-5,-7,125.771484375,-0.45162004817827966,-0.009198,False,,False,,,,,30
504.69800000000004,2.225380793999875,-0.928955078125,0.3388671875,-0.019775390625,1.7709923664122136,0.366412213740458,0.3969465648854962,5724,-5,-7,125.771484375,-0.45162004817827966,-0.009198,False,,False,,,,,30
504.70300000000003,2.227381947999902,-0.928955078125,0.33984375,-0.019775390625,1.8625954198473282,0.2748091603053435,0.48854961832061067,5724,0,-6,125.771484375,-0.46436585966246346,-0.007884,False,,False,,,,,30
504.70300000000003,2.229380898999807,-0.928955078125,0.33984375,-0.019775390625,1.8625954198473282,0.2748091603053435,0.48854961832061067,5724,0,-6,125.771484375,-0.46436585966246346,-0.007884,False,,False,,,,,30
504.708,2.231385663999845,-0.930908203125,0.33837890625,-0.019775390625,2.015267175572519,0.21374045801526717,0.6717557251908397,5722,0,-4,125.7275390625,-0.48422487076207316,-0.005256,False,,False,,,,,30
504.708,2.233384150999882,-0.930908203125,0.33837890625,-0.019775390625,2.015267175572519,0.21374045801526717,0.6717557251908397,5722,0,-4,125.7275390625,-0.48422487076207316,-0.005256,False,,False,,,,,30
504.708,2.2353887679998934,-0.930908203125,0.33837890625,-0.019775390625,2.015267175572519,0.21374045801526717,0.6717557251908397,5722,0,-4,125.7275390625,-0.48422487076207316,-0.005256,False,,False,,,,,30
504.713,2.237391477999836,-0.9345703125,0.3369140625,-0.02001953125,1.8625954198473282,0.15267175572519084,0.6717557251908397,5724,-5,-2,125.771484375,-0.5256668226025567,-0.002628,False,,False,,,,,30
504.713,2.2393902799999523,-0.9345703125,0.3369140625,-0.02001953125,1.8625954198473282,0.15267175572519084,0.6717557251908397,5724,-5,-2,125.771484375,-0.5256668226025567,-0.002628,False,,False,,,,,30
504.718,2.241393062999805,-0.930419921875,0.332275390625,-0.02099609375,2.015267175572519,0.12213740458015267,0.6717557251908397,5724,8,5,125.771484375,-0.52091488782809,0.0065699999999999995,False,,False,,,,,30
504.718,2.2433908659997996,-0.930419921875,0.332275390625,-0.02099609375,2.015267175572519,0.12213740458015267,0.6717557251908397,5724,8,5,125.771484375,-0.52091488782809,0.0065699999999999995,False,,False,,,,,30
504.718,2.245395611999811,-0.930419921875,0.332275390625,-0.02099609375,2.015267175572519,0.12213740458015267,0.6717557251908397,5724,8,5,125.771484375,-0.52091488782809,0.0065699999999999995,False,,False,,,,,30
504.723,2.2473966919999384,-0.930908203125,0.33544921875,-0.02001953125,1.9236641221374045,-0.061068702290076333,0.7022900763358778,5725,4,5,125.79345703125,-0.4616435261618014,0.0065699999999999995,False,,False,,,,,30
504.723,2.2493972719998965,-0.930908203125,0.33544921875,-0.02001953125,1.9236641221374045,-0.061068702290076333,0.7022900763358778,5725,4,5,125.79345703125,-0.4616435261618014,0.0065699999999999995,False,,False,,,,,30
504.728,2.251401370999929,-0.929931640625,0.33447265625,-0.02197265625,2.1374045801526718,-0.15267175572519084,0.7938931297709924,5723,0,1,125.74951171875,-0.4053349264290782,0.001314,False,,False,,,,,30
504.728,2.2533986169999025,-0.929931640625,0.33447265625,-0.02197265625,2.1374045801526718,-0.15267175572519084,0.7938931297709924,5723,0,1,125.74951171875,-0.4053349264290782,0.001314,False,,False,,,,,30
504.728,2.2554022899998927,-0.929931640625,0.33447265625,-0.02197265625,2.1374045801526718,-0.15267175572519084,0.7938931297709924,5723,0,1,125.74951171875,-0.4053349264290782,0.001314,False,,False,,,,,30
504.733,2.2574054439999145,-0.93310546875,0.33447265625,-0.023193359375,1.984732824427481,0.030534351145038167,0.6106870229007634,5723,1,3,125.74951171875,-0.40006920166805715,0.003942,False,,False,,,,,30
504.733,2.259404300999904,-0.93310546875,0.33447265625,-0.023193359375,1.984732824427481,0.030534351145038167,0.6106870229007634,5723,1,3,125.74951171875,-0.40006920166805715,0.003942,False,,False,,,,,30
504.738,2.2614080109999577,-0.933837890625,0.33447265625,-0.023193359375,2.045801526717557,0.0,0.916030534351145,5723,0,6,125.74951171875,-0.4216963257779035,0.007884,False,,False,,,,,30
504.738,2.2634060719999525,-0.933837890625,0.33447265625,-0.023193359375,2.045801526717557,0.0,0.916030534351145,5723,0,6,125.74951171875,-0.4216963257779035,0.007884,False,,False,,,,,30
504.738,2.265411077999943,-0.933837890625,0.33447265625,-0.023193359375,2.045801526717557,0.0,0.916030534351145,5723,0,6,125.74951171875,-0.4216963257779035,0.007884,False,,False,,,,,30
504.743,2.2674118429999908,-0.935302734375,0.33642578125,-0.023193359375,2.045801526717557,0.061068702290076333,0.7633587786259541,5722,-3,0,125.7275390625,-0.44960875069508666,0.0,False,,False,,,,,30
504.743,2.2694112570000016,-0.935302734375,0.33642578125,-0.023193359375,2.045801526717557,0.061068702290076333,0.7633587786259541,5722,-3,0,125.7275390625,-0.44960875069508666,0.0,False,,False,,,,,30
504.748,2.2714172629998757,-0.934326171875,0.33544921875,-0.02099609375,2.351145038167939,0.0916030534351145,0.6717557251908397,5722,0,1,125.7275390625,-0.498294347062275,0.001314,False,,False,,,,,30
504.748,2.2734156019998863,-0.934326171875,0.33544921875,-0.02099609375,2.351145038167939,0.0916030534351145,0.6717557251908397,5722,0,1,125.7275390625,-0.498294347062275,0.001314,False,,False,,,,,30
504.748,2.2754195149998395,-0.934326171875,0.33544921875,-0.02099609375,2.351145038167939,0.0916030534351145,0.6717557251908397,5722,0,1,125.7275390625,-0.498294347062275,0.001314,False,,False,,,,,30
504.753,2.277424724999946,-0.935791015625,0.33544921875,-0.022705078125,2.2900763358778624,-0.12213740458015267,0.7633587786259541,5721,-10,-3,125.70556640625,-0.5636655665081779,-0.003942,False,,False,,,,,30
504.753,2.2794205819998297,-0.935791015625,0.33544921875,-0.022705078125,2.2900763358778624,-0.12213740458015267,0.7633587786259541,5721,-10,-3,125.70556640625,-0.5636655665081779,-0.003942,False,,False,,,,,30
504.75800000000004,2.281424698999899,-0.9345703125,0.33740234375,-0.02392578125,2.351145038167939,-0.12213740458015267,0.7022900763358778,5722,-2,-1,125.7275390625,-0.6261430758923177,-0.001314,False,,False,,,,,30
504.75800000000004,2.2834225569999944,-0.9345703125,0.33740234375,-0.02392578125,2.351145038167939,-0.12213740458015267,0.7022900763358778,5722,-2,-1,125.7275390625,-0.6261430758923177,-0.001314,False,,False,,,,,30
504.76300000000003,2.28657876699981,-0.9365234375,0.335205078125,-0.019775390625,2.4427480916030535,-0.030534351145038167,0.6717557251908397,5722,2,2,125.7275390625,-0.6534617445557027,0.002628,False,,False,,,,,30
504.76300000000003,2.2885805509999955,-0.9365234375,0.335205078125,-0.019775390625,2.4427480916030535,-0.030534351145038167,0.6717557251908397,5722,2,2,125.7275390625,-0.6534617445557027,0.002628,False,,False,,,,,30
504.76300000000003,2.2905790749998687,-0.9365234375,0.335205078125,-0.019775390625,2.4427480916030535,-0.030534351145038167,0.6717557251908397,5722,2,2,125.7275390625,-0.6534617445557027,0.002628,False,,False,,,,,30
504.76800000000003,2.2925823959999434,-0.937255859375,0.335205078125,-0.0244140625,2.5038167938931295,-0.24427480916030533,0.6412213740458015,5721,3,4,125.70556640625,-0.666865911413731,0.005256,False,,False,,,,,30
504.76800000000003,2.294581067999843,-0.937255859375,0.335205078125,-0.0244140625,2.5038167938931295,-0.24427480916030533,0.6412213740458015,5721,3,4,125.70556640625,-0.666865911413731,0.005256,False,,False,,,,,30
504.773,2.296587703999876,-0.93603515625,0.336181640625,-0.022705078125,2.4122137404580153,-0.24427480916030533,0.6717557251908397,5721,0,3,125.70556640625,-0.7002581153702652,0.003942,False,,False,,,,,30
504.773,2.2985841539998546,-0.93603515625,0.336181640625,-0.022705078125,2.4122137404580153,-0.24427480916030533,0.6717557251908397,5721,0,3,125.70556640625,-0.7002581153702652,0.003942,False,,False,,,,,30
504.773,2.300590252999882,-0.93603515625,0.336181640625,-0.022705078125,2.4122137404580153,-0.24427480916030533,0.6717557251908397,5721,0,3,125.70556640625,-0.7002581153702652,0.003942,False,,False,,,,,30
504.778,2.302590146999819,-0.935546875,0.33154296875,-0.022705078125,2.4732824427480917,-0.15267175572519084,0.42748091603053434,5721,-3,-4,125.70556640625,-0.733984600924129,-0.005256,False,,False,,,,,30
504.778,2.3045900789998086,-0.935546875,0.33154296875,-0.022705078125,2.4732824427480917,-0.15267175572519084,0.42748091603053434,5721,-3,-4,125.70556640625,-0.733984600924129,-0.005256,False,,False,,,,,30
504.783,2.3066719359999297,-0.937744140625,0.33251953125,-0.022705078125,2.3206106870229006,-0.3053435114503817,0.6412213740458015,5721,-2,0,125.70556640625,-0.7515867619455384,0.0,False,,False,,,,,30
504.783,2.3086705900000197,-0.937744140625,0.33251953125,-0.022705078125,2.3206106870229006,-0.3053435114503817,0.6412213740458015,5721,-2,0,125.70556640625,-0.7515867619455384,0.0,False,,False,,,,,30
504.783,2.3106714289999672,-0.937744140625,0.33251953125,-0.022705078125,2.3206106870229006,-0.3053435114503817,0.6412213740458015,5721,-2,0,125.70556640625,-0.7515867619455384,0.0,False,,False,,,,,30
504.788,2.3126744899998357,-0.93896484375,0.329833984375,-0.02197265625,2.4122137404580153,-0.3053435114503817,0.48854961832061067,5720,1,5,125.68359375,-0.7713505292396192,0.0065699999999999995,False,,False,,,,,30
504.788,2.3146768479998627,-0.93896484375,0.329833984375,-0.02197265625,2.4122137404580153,-0.3053435114503817,0.48854961832061067,5720,1,5,125.68359375,-0.7713505292396192,0.0065699999999999995,False,,False,,,,,30
504.793,2.316678631999821,-0.9375,0.3310546875,-0.01953125,2.351145038167939,-0.15267175572519084,0.7022900763358778,5720,0,-3,125.68359375,-0.8085532339546386,-0.003942,False,,False,,,,,30
504.793,2.3186801929998637,-0.9375,0.3310546875,-0.01953125,2.351145038167939,-0.15267175572519084,0.7022900763358778,5720,0,-3,125.68359375,-0.8085532339546386,-0.003942,False,,False,,,,,30
504.793,2.320680254999843,-0.9375,0.3310546875,-0.01953125,2.351145038167939,-0.15267175572519084,0.7022900763358778,5720,0,-3,125.68359375,-0.8085532339546386,-0.003942,False,,False,,,,,30
504.798,2.3226836119999916,-0.935302734375,0.33154296875,-0.022705078125,2.2900763358778624,-0.21374045801526717,0.6717557251908397,5719,-6,-7,125.66162109375,-0.859816551703983,-0.009198,False,,False,,,,,30
504.798,2.3246844699999656,-0.935302734375,0.33154296875,-0.022705078125,2.2900763358778624,-0.21374045801526717,0.6717557251908397,5719,-6,-7,125.66162109375,-0.859816551703983,-0.009198,False,,False,,,,,30
504.803,2.3266904939998767,-0.94091796875,0.329345703125,-0.01953125,2.4122137404580153,-0.183206106870229,0.6412213740458015,5719,1,-3,125.66162109375,-0.9221085190499286,-0.003942,False,,False,,,,,30
504.803,2.328689370999882,-0.94091796875,0.329345703125,-0.01953125,2.4122137404580153,-0.183206106870229,0.6412213740458015,5719,1,-3,125.66162109375,-0.9221085190499286,-0.003942,False,,False,,,,,30
504.803,2.3306932839998353,-0.94091796875,0.329345703125,-0.01953125,2.4122137404580153,-0.183206106870229,0.6412213740458015,5719,1,-3,125.66162109375,-0.9221085190499286,-0.003942,False,,False,,,,,30
504.808,2.3326929929999096,-0.934326171875,0.330078125,-0.019775390625,2.3206106870229006,-0.21374045801526717,0.6412213740458015,5720,2,0,125.68359375,-0.9608998776197882,0.0,False,,False,,,,,30
504.808,2.334694887999831,-0.934326171875,0.330078125,-0.019775390625,2.3206106870229006,-0.21374045801526717,0.6412213740458015,5720,2,0,125.68359375,-0.9608998776197882,0.0,False,,False,,,,,30
504.813,2.3366958759997942,-0.937255859375,0.33154296875,-0.02392578125,2.4732824427480917,-0.061068702290076333,0.6106870229007634,5720,-4,0,125.68359375,-0.9476238127540453,0.0,False,,False,,,,,30
504.813,2.3386976589999904,-0.937255859375,0.33154296875,-0.02392578125,2.4732824427480917,-0.061068702290076333,0.6106870229007634,5720,-4,0,125.68359375,-0.9476238127540453,0.0,False,,False,,,,,30
504.813,2.340696368999943,-0.937255859375,0.33154296875,-0.02392578125,2.4732824427480917,-0.061068702290076333,0.6106870229007634,5720,-4,0,125.68359375,-0.9476238127540453,0.0,False,,False,,,,,30
504.818,2.3427021519999016,-0.93359375,0.328369140625,-0.019287109375,2.4122137404580153,0.030534351145038167,0.549618320610687,5719,-2,-3,125.66162109375,-0.9227813682645303,-0.003942,False,,False,,,,,30
504.818,2.344701713999939,-0.93359375,0.328369140625,-0.019287109375,2.4122137404580153,0.030534351145038167,0.549618320610687,5719,-2,-3,125.66162109375,-0.9227813682645303,-0.003942,False,,False,,,,,30
504.82300000000004,2.346706719999929,-0.9365234375,0.33251953125,-0.019775390625,2.5038167938931295,-0.2748091603053435,0.6412213740458015,5719,3,-2,125.66162109375,-0.9204468338603365,-0.002628,False,,False,,,,,30
504.82300000000004,2.3487040219999926,-0.9365234375,0.33251953125,-0.019775390625,2.5038167938931295,-0.2748091603053435,0.6412213740458015,5719,3,-2,125.66162109375,-0.9204468338603365,-0.002628,False,,False,,,,,30
504.82300000000004,2.3507081019999987,-0.9365234375,0.33251953125,-0.019775390625,2.5038167938931295,-0.2748091603053435,0.6412213740458015,5719,3,-2,125.66162109375,-0.9204468338603365,-0.002628,False,,False,,,,,30
504.82800000000003,2.35270751500002,-0.938232421875,0.32958984375,-0.017822265625,2.5038167938931295,-0.061068702290076333,0.6106870229007634,5719,1,0,125.66162109375,-0.9210737359531691,0.0,False,,False,,,,,30
504.82800000000003,2.35470979899992,-0.938232421875,0.32958984375,-0.017822265625,2.5038167938931295,-0.061068702290076333,0.6106870229007634,5719,1,0,125.66162109375,-0.9210737359531691,0.0,False,,False,,,,,30
504.833,2.356712064000021,-0.937744140625,0.332763671875,-0.018310546875,2.5038167938931295,-0.21374045801526717,0.5190839694656488,5718,1,-2,125.6396484375,-0.9241708165837867,-0.002628,False,,False,,,,,30
504.833,2.3587090329999683,-0.937744140625,0.332763671875,-0.018310546875,2.5038167938931295,-0.21374045801526717,0.5190839694656488,5718,1,-2,125.6396484375,-0.9241708165837867,-0.002628,False,,False,,,,,30
504.833,2.3607345379998605,-0.937744140625,0.332763671875,-0.018310546875,2.5038167938931295,-0.21374045801526717,0.5190839694656488,5718,1,-2,125.6396484375,-0.9241708165837867,-0.002628,False,,False,,,,,30
504.838,2.362735432999898,-0.9365234375,0.33447265625,-0.017333984375,2.229007633587786,-0.15267175572519084,0.8244274809160305,5717,-3,-1,125.61767578125,-0.9611222039927153,-0.001314,False,,False,,,,,30
504.838,2.364737845999798,-0.9365234375,0.33447265625,-0.017333984375,2.229007633587786,-0.15267175572519084,0.8244274809160305,5717,-3,-1,125.61767578125,-0.9611222039927153,-0.001314,False,,False,,,,,30
504.843,2.3667391110000153,-0.936279296875,0.333984375,-0.016845703125,1.8625954198473282,-0.21374045801526717,1.1603053435114503,5717,-4,2,125.61767578125,-1.0258804912255188,0.002628,False,,False,,,,,30
504.843,2.368740376000005,-0.936279296875,0.333984375,-0.016845703125,1.8625954198473282,-0.21374045801526717,1.1603053435114503,5717,-4,2,125.61767578125,-1.0258804912255188,0.002628,False,,False,,,,,30
504.843,2.370738344999836,-0.936279296875,0.333984375,-0.016845703125,1.8625954198473282,-0.21374045801526717,1.1603053435114503,5717,-4,2,125.61767578125,-1.0258804912255188,0.002628,False,,False,,,,,30
504.848,2.3727433330000167,-0.93603515625,0.337158203125,-0.018310546875,1.5572519083969465,-0.12213740458015267,1.3740458015267174,5717,-4,-3,125.61767578125,-1.0811488840121153,-0.003942,False,,False,,,,,30
504.848,2.374743467999906,-0.93603515625,0.337158203125,-0.018310546875,1.5572519083969465,-0.12213740458015267,1.3740458015267174,5717,-4,-3,125.61767578125,-1.0811488840121153,-0.003942,False,,False,,,,,30
504.853,2.3767479739999544,-0.9404296875,0.33447265625,-0.0166015625,1.6793893129770991,-0.0916030534351145,1.4961832061068703,5717,-2,-1,125.61767578125,-1.111756260635015,-0.001314,False,,False,,,,,30
504.853,2.378746812999907,-0.9404296875,0.33447265625,-0.0166015625,1.6793893129770991,-0.0916030534351145,1.4961832061068703,5717,-2,-1,125.61767578125,-1.111756260635015,-0.001314,False,,False,,,,,30
504.853,2.3807460229998014,-0.9404296875,0.33447265625,-0.0166015625,1.6793893129770991,-0.0916030534351145,1.4961832061068703,5717,-2,-1,125.61767578125,-1.111756260635015,-0.001314,False,,False,,,,,30
504.858,2.3827498059999925,-0.933837890625,0.333740234375,-0.01806640625,1.7709923664122136,-0.21374045801526717,1.4045801526717556,5717,2,-5,125.61767578125,-1.1212744863437973,-0.0065699999999999995,False,,False,,,,,30
504.858,2.384750423000014,-0.933837890625,0.333740234375,-0.01806640625,1.7709923664122136,-0.21374045801526717,1.4045801526717556,5717,2,-5,125.61767578125,-1.1212744863437973,-0.0065699999999999995,False,,False,,,,,30
504.863,2.386751559000004,-0.933837890625,0.329345703125,-0.016357421875,1.83206106870229,0.0,1.4351145038167938,5716,-3,-8,125.595703125,-1.128914966533209,-0.010512,False,,False,,,,,30
504.863,2.3887542309998935,-0.933837890625,0.329345703125,-0.016357421875,1.83206106870229,0.0,1.4351145038167938,5716,-3,-8,125.595703125,-1.128914966533209,-0.010512,False,,False,,,,,30
504.863,2.390753496999878,-0.933837890625,0.329345703125,-0.016357421875,1.83206106870229,0.0,1.4351145038167938,5716,-3,-8,125.595703125,-1.128914966533209,-0.010512,False,,False,,,,,30
504.868,2.3927556319999894,-0.93896484375,0.32373046875,-0.016845703125,2.259541984732824,-0.183206106870229,0.9465648854961831,5717,-5,-9,125.61767578125,-1.134872747084607,-0.011826,False,,False,,,,,30
504.868,2.3947553599998628,-0.93896484375,0.32373046875,-0.016845703125,2.259541984732824,-0.183206106870229,0.9465648854961831,5717,-5,-9,125.61767578125,-1.134872747084607,-0.011826,False,,False,,,,,30
504.873,2.3967587919999005,-0.936279296875,0.330078125,-0.017333984375,2.259541984732824,-0.12213740458015267,1.282442748091603,5716,-5,-2,125.595703125,-1.1234199010447965,-0.002628,False,,False,,,,,30
504.873,2.3987590570000066,-0.936279296875,0.330078125,-0.017333984375,2.259541984732824,-0.12213740458015267,1.282442748091603,5716,-5,-2,125.595703125,-1.1234199010447965,-0.002628,False,,False,,,,,30
504.873,2.400763674000018,-0.936279296875,0.330078125,-0.017333984375,2.259541984732824,-0.12213740458015267,1.282442748091603,5716,-5,-2,125.595703125,-1.1234199010447965,-0.002628,False,,False,,,,,30
504.878,2.402766086999918,-0.937255859375,0.323974609375,-0.016845703125,1.3435114503816794,0.21374045801526717,1.465648854961832,5716,-11,0,125.595703125,-1.113472704724055,0.0,False,,False,,,,,30
504.878,2.4047655929998655,-0.937255859375,0.323974609375,-0.016845703125,1.3435114503816794,0.21374045801526717,1.465648854961832,5716,-11,0,125.595703125,-1.113472704724055,0.0,False,,False,,,,,30
504.88300000000004,2.4067689689998133,-0.935546875,0.32568359375,-0.021484375,0.8244274809160305,0.3969465648854962,1.4045801526717556,5716,-7,0,125.595703125,-1.1049301130294975,0.0,False,,False,,,,,30
504.88300000000004,2.4087686419998136,-0.935546875,0.32568359375,-0.021484375,0.8244274809160305,0.3969465648854962,1.4045801526717556,5716,-7,0,125.595703125,-1.1049301130294975,0.0,False,,False,,,,,30
504.88300000000004,2.410768332999851,-0.935546875,0.32568359375,-0.021484375,0.8244274809160305,0.3969465648854962,1.4045801526717556,5716,-7,0,125.595703125,-1.1049301130294975,0.0,False,,False,,,,,30
504.88800000000003,2.4127760609999314,-0.9384765625,0.335205078125,-0.0205078125,2.015267175572519,0.21374045801526717,1.1603053435114503,5718,7,-3,125.6396484375,-1.0499404069562226,-0.003942,False,,False,,,,,30
504.88800000000003,2.4147732519998044,-0.9384765625,0.335205078125,-0.0205078125,2.015267175572519,0.21374045801526717,1.1603053435114503,5718,7,-3,125.6396484375,-1.0499404069562226,-0.003942,False,,False,,,,,30
504.89300000000003,2.4167761100000007,-0.9375,0.326904296875,-0.018798828125,2.778625954198473,-0.12213740458015267,0.9770992366412213,5715,-1,1,125.57373046875,-0.972778242374199,0.001314,False,,False,,,,,30
504.89300000000003,2.418775912000001,-0.9375,0.326904296875,-0.018798828125,2.778625954198473,-0.12213740458015267,0.9770992366412213,5715,-1,1,125.57373046875,-0.972778242374199,0.001314,False,,False,,,,,30
504.89300000000003,2.4207798439999806,-0.9375,0.326904296875,-0.018798828125,2.778625954198473,-0.12213740458015267,0.9770992366412213,5715,-1,1,125.57373046875,-0.972778242374199,0.001314,False,,False,,,,,30
504.898,2.4227812199999335,-0.93994140625,0.3212890625,-0.017578125,3.0839694656488548,-0.2748091603053435,0.6717557251908397,5716,0,2,125.595703125,-0.9418338998855529,0.002628,False,,False,,,,,30
504.898,2.424782114999971,-0.93994140625,0.3212890625,-0.017578125,3.0839694656488548,-0.2748091603053435,0.6717557251908397,5716,0,2,125.595703125,-0.9418338998855529,0.002628,False,,False,,,,,30
504.903,2.4267837129998497,-0.944580078125,0.318359375,-0.0146484375,2.4427480916030535,-0.15267175572519084,0.6106870229007634,5715,-4,2,125.57373046875,-0.9341149596323131,0.002628,False,,False,,,,,30
504.903,2.428784274999998,-0.944580078125,0.318359375,-0.0146484375,2.4427480916030535,-0.15267175572519084,0.6106870229007634,5715,-4,2,125.57373046875,-0.9341149596323131,0.002628,False,,False,,,,,30
504.903,2.430784761999803,-0.944580078125,0.318359375,-0.0146484375,2.4427480916030535,-0.15267175572519084,0.6106870229007634,5715,-4,2,125.57373046875,-0.9341149596323131,0.002628,False,,False,,,,,30
504.908,2.4327891749999253,-0.94384765625,0.328857421875,-0.013916015625,1.8015267175572518,-0.030534351145038167,0.6717557251908397,5716,7,-6,125.595703125,-0.9141205369566845,-0.007884,False,,False,,,,,30
504.908,2.434790439999915,-0.94384765625,0.328857421875,-0.013916015625,1.8015267175572518,-0.030534351145038167,0.6717557251908397,5716,7,-6,125.595703125,-0.9141205369566845,-0.007884,False,,False,,,,,30
504.913,2.4367939459998524,-0.932861328125,0.33154296875,-0.013916015625,1.0381679389312977,-0.030534351145038167,1.0381679389312977,5716,6,-6,125.595703125,-0.8682233667658245,-0.007884,False,,False,,,,,30
504.913,2.4387915819997943,-0.932861328125,0.33154296875,-0.013916015625,1.0381679389312977,-0.030534351145038167,1.0381679389312977,5716,6,-6,125.595703125,-0.8682233667658245,-0.007884,False,,False,,,,,30
504.913,2.4407955509998374,-0.932861328125,0.33154296875,-0.013916015625,1.0381679389312977,-0.030534351145038167,1.0381679389312977,5716,6,-6,125.595703125,-0.8682233667658245,-0.007884,False,,False,,,,,30
504.918,2.4427961119999964,-0.931640625,0.3486328125,-0.016357421875,-0.5190839694656488,0.732824427480916,2.3206106870229006,5713,-5,-1,125.52978515625,-0.8490525691543136,-0.001314,False,,False,,,,,30
504.918,2.4447975619998488,-0.931640625,0.3486328125,-0.016357421875,-0.5190839694656488,0.732824427480916,2.3206106870229006,5713,-5,-1,125.52978515625,-0.8490525691543136,-0.001314,False,,False,,,,,30
504.923,2.4467985869998756,-0.93115234375,0.326416015625,-0.021240234375,-0.6412213740458015,0.6106870229007634,1.6793893129770991,5713,-7,-2,125.52978515625,-0.916196692743873,-0.002628,False,,False,,,,,30
504.923,2.4488006849999238,-0.93115234375,0.326416015625,-0.021240234375,-0.6412213740458015,0.6106870229007634,1.6793893129770991,5713,-7,-2,125.52978515625,-0.916196692743873,-0.002628,False,,False,,,,,30
504.923,2.4508006349999505,-0.93115234375,0.326416015625,-0.021240234375,-0.6412213740458015,0.6106870229007634,1.6793893129770991,5713,-7,-2,125.52978515625,-0.916196692743873,-0.002628,False,,False,,,,,30
504.928,2.4528045119998296,-0.928466796875,0.339111328125,-0.0146484375,5.526717557251908,-0.8549618320610687,0.0916030534351145,5716,5,0,125.595703125,-0.9591358304981218,0.0,False,,False,,,,,30
504.928,2.4548046840000097,-0.928466796875,0.339111328125,-0.0146484375,5.526717557251908,-0.8549618320610687,0.0916030534351145,5716,5,0,125.595703125,-0.9591358304981218,0.0,False,,False,,,,,30
504.933,2.4568071159999363,-0.944091796875,0.315673828125,-0.008544921875,5.374045801526718,-1.0381679389312977,-0.030534351145038167,5714,0,3,125.5517578125,-0.9175265803365875,0.003942,False,,False,,,,,30
504.933,2.458805732999963,-0.944091796875,0.315673828125,-0.008544921875,5.374045801526718,-1.0381679389312977,-0.030534351145038167,5714,0,3,125.5517578125,-0.9175265803365875,0.003942,False,,False,,,,,30
504.933,2.4608106459998,-0.944091796875,0.315673828125,-0.008544921875,5.374045801526718,-1.0381679389312977,-0.030534351145038167,5714,0,3,125.5517578125,-0.9175265803365875,0.003942,False,,False,,,,,30
504.938,2.4628100599998106,-0.941162109375,0.303466796875,-0.0087890625,3.3893129770992365,-0.33587786259541985,0.061068702290076333,5712,-1,-4,125.5078125,-0.9171469011417337,-0.005256,False,,False,,,,,30
504.938,2.464812879999954,-0.941162109375,0.303466796875,-0.0087890625,3.3893129770992365,-0.33587786259541985,0.061068702290076333,5712,-1,-4,125.5078125,-0.9171469011417337,-0.005256,False,,False,,,,,30
504.943,2.466812126999912,-0.94482421875,0.306396484375,-0.007080078125,1.8015267175572518,0.030534351145038167,0.15267175572519084,5711,-5,-7,125.48583984375,-1.014951732937492,-0.009198,False,,False,,,,,30
504.943,2.468814132999796,-0.94482421875,0.306396484375,-0.007080078125,1.8015267175572518,0.030534351145038167,0.15267175572519084,5711,-5,-7,125.48583984375,-1.014951732937492,-0.009198,False,,False,,,,,30
504.943,2.4708131019999655,-0.94482421875,0.306396484375,-0.007080078125,1.8015267175572518,0.030534351145038167,0.15267175572519084,5711,-5,-7,125.48583984375,-1.014951732937492,-0.009198,False,,False,,,,,30
504.94800000000004,2.4728189219999877,-0.939697265625,0.33642578125,-0.00927734375,3.2671755725190836,-0.42748091603053434,-0.183206106870229,5709,-6,-5,125.44189453125,-1.1776223713713168,-0.0065699999999999995,False,,False,,,,,30
504.94800000000004,2.4748188539999774,-0.939697265625,0.33642578125,-0.00927734375,3.2671755725190836,-0.42748091603053434,-0.183206106870229,5709,-6,-5,125.44189453125,-1.1776223713713168,-0.0065699999999999995,False,,False,,,,,30
504.95300000000003,2.476820803999999,-0.9384765625,0.336181640625,-0.01318359375,4.061068702290076,-0.732824427480916,-0.15267175572519084,5708,-8,1,125.419921875,-1.3922409079391402,0.001314,False,,False,,,,,30
504.95300000000003,2.4788198469998406,-0.9384765625,0.336181640625,-0.01318359375,4.061068702290076,-0.732824427480916,-0.15267175572519084,5708,-8,1,125.419921875,-1.3922409079391402,0.001314,False,,False,,,,,30
504.95300000000003,2.480824259999963,-0.9384765625,0.336181640625,-0.01318359375,4.061068702290076,-0.732824427480916,-0.15267175572519084,5708,-8,1,125.419921875,-1.3922409079391402,0.001314,False,,False,,,,,30
504.958,2.4828248769999846,-0.94091796875,0.332763671875,-0.01171875,4.213740458015267,-0.4580152671755725,-0.030534351145038167,5708,-6,0,125.419921875,-1.61540896651,0.0,False,,False,,,,,30
504.958,2.484826790999932,-0.94091796875,0.332763671875,-0.01171875,4.213740458015267,-0.4580152671755725,-0.030534351145038167,5708,-6,0,125.419921875,-1.61540896651,0.0,False,,False,,,,,30
504.963,2.4868272599999273,-0.944580078125,0.32568359375,-0.01171875,3.9083969465648853,-0.0916030534351145,0.061068702290076333,5706,-14,-5,125.3759765625,-1.8265859609044632,-0.0065699999999999995,False,,False,,,,,30
504.963,2.4888301909998063,-0.944580078125,0.32568359375,-0.01171875,3.9083969465648853,-0.0916030534351145,0.061068702290076333,5706,-14,-5,125.3759765625,-1.8265859609044632,-0.0065699999999999995,False,,False,,,,,30
504.963,2.490828253000018,-0.944580078125,0.32568359375,-0.01171875,3.9083969465648853,-0.0916030534351145,0.061068702290076333,5706,-14,-5,125.3759765625,-1.8265859609044632,-0.0065699999999999995,False,,False,,,,,30
504.968,2.4928326289998495,-0.943115234375,0.330078125,-0.00634765625,4.0,0.42748091603053434,0.030534351145038167,5706,-6,0,125.3759765625,-2.0405805857184234,0.0,False,,False,,,,,30
504.968,2.494834152999829,-0.943115234375,0.330078125,-0.00634765625,4.0,0.42748091603053434,0.030534351145038167,5706,-6,0,125.3759765625,-2.0405805857184234,0.0,False,,False,,,,,30
504.973,2.4968361589999404,-0.9453125,0.323974609375,-0.00927734375,4.183206106870228,0.6106870229007634,-0.183206106870229,5705,-5,0,125.35400390625,-2.23791840491676,0.0,False,,False,,,,,30
504.973,2.4988345539998136,-0.9453125,0.323974609375,-0.00927734375,4.183206106870228,0.6106870229007634,-0.183206106870229,5705,-5,0,125.35400390625,-2.23791840491676,0.0,False,,False,,,,,30
504.973,2.5008524299998953,-0.9453125,0.323974609375,-0.00927734375,4.183206106870228,0.6106870229007634,-0.183206106870229,5705,-5,0,125.35400390625,-2.23791840491676,0.0,False,,False,,,,,30
504.978,2.502852953999991,-0.94677734375,0.3251953125,-0.007080078125,4.33587786259542,1.099236641221374,-0.061068702290076333,5702,-10,-1,125.2880859375,-2.4502838583470434,-0.001314,False,,False,,,,,30
504.978,2.504856052999912,-0.94677734375,0.3251953125,-0.007080078125,4.33587786259542,1.099236641221374,-0.061068702290076333,5702,-10,-1,125.2880859375,-2.4502838583470434,-0.001314,False,,False,,,,,30
504.983,2.506857150999849,-0.94677734375,0.3251953125,-0.006591796875,4.122137404580153,1.465648854961832,-0.183206106870229,5698,-18,-1,125.2001953125,-2.767647246839201,-0.001314,False,,False,,,,,30
504.983,2.508858860999908,-0.94677734375,0.3251953125,-0.006591796875,4.122137404580153,1.465648854961832,-0.183206106870229,5698,-18,-1,125.2001953125,-2.767647246839201,-0.001314,False,,False,,,,,30
504.983,2.510856719000003,-0.94677734375,0.3251953125,-0.006591796875,4.122137404580153,1.465648854961832,-0.183206106870229,5698,-18,-1,125.2001953125,-2.767647246839201,-0.001314,False,,False,,,,,30
504.988,2.5128626690000146,-0.95166015625,0.3310546875,-0.0048828125,4.244274809160305,2.229007633587786,-0.12213740458015267,5696,-15,4,125.15625,-3.200146608704294,0.005256,False,,False,,,,,30
504.988,2.514862563999941,-0.95166015625,0.3310546875,-0.0048828125,4.244274809160305,2.229007633587786,-0.12213740458015267,5696,-15,4,125.15625,-3.200146608704294,0.005256,False,,False,,,,,30
504.993,2.5168646069998886,-0.953125,0.333251953125,-0.005615234375,4.152671755725191,2.8091603053435112,-0.183206106870229,5693,-21,7,125.09033203125,-3.6909390099105375,0.009198,False,,False,,,,,30
504.993,2.518864297999926,-0.953125,0.333251953125,-0.005615234375,4.152671755725191,2.8091603053435112,-0.183206106870229,5693,-21,7,125.09033203125,-3.6909390099105375,0.009198,False,,False,,,,,30
504.993,2.52086800699999,-0.953125,0.333251953125,-0.005615234375,4.152671755725191,2.8091603053435112,-0.183206106870229,5693,-21,7,125.09033203125,-3.6909390099105375,0.009198,False,,False,,,,,30
504.998,2.522869253999943,-0.95556640625,0.3349609375,-0.004638671875,4.030534351145038,3.32824427480916,0.15267175572519084,5688,-30,-3,124.98046875,-4.255254484170505,-0.003942,False,,False,,,,,30
504.998,2.524870777999922,-0.95556640625,0.3349609375,-0.004638671875,4.030534351145038,3.32824427480916,0.15267175572519084,5688,-30,-3,124.98046875,-4.255254484170505,-0.003942,False,,False,,,,,30
505.003,2.5268714689998433,-0.955810546875,0.347412109375,-0.002197265625,3.2061068702290076,4.091603053435114,0.549618320610687,5674,-58,0,124.6728515625,-5.095765338776966,0.0,False,,False,,,,,30
505.003,2.5288736420000077,-0.955810546875,0.347412109375,-0.002197265625,3.2061068702290076,4.091603053435114,0.549618320610687,5674,-58,0,124.6728515625,-5.095765338776966,0.0,False,,False,,,,,30
505.003,2.5308730549998018,-0.955810546875,0.347412109375,-0.002197265625,3.2061068702290076,4.091603053435114,0.549618320610687,5674,-58,0,124.6728515625,-5.095765338776966,0.0,False,,False,,,,,30
505.00800000000004,2.532876023999961,-0.93310546875,0.365478515625,-0.002685546875,-1.5877862595419847,5.984732824427481,3.541984732824427,5648,-122,7,124.1015625,-6.664624610502887,0.009198,False,,False,,,,,30
505.00800000000004,2.5348769189999985,-0.93310546875,0.365478515625,-0.002685546875,-1.5877862595419847,5.984732824427481,3.541984732824427,5648,-122,7,124.1015625,-6.664624610502887,0.009198,False,,False,,,,,30
505.01300000000003,2.5371795309999925,-0.94384765625,0.344970703125,-0.011962890625,-1.3740458015267174,6.198473282442748,2.564885496183206,5618,-138,8,123.4423828125,-9.40939310427403,0.010512,False,,False,,,,,30
505.01300000000003,2.5391758149999077,-0.94384765625,0.344970703125,-0.011962890625,-1.3740458015267174,6.198473282442748,2.564885496183206,5618,-138,8,123.4423828125,-9.40939310427403,0.010512,False,,False,,,,,30
505.01300000000003,2.5411763390000033,-0.94384765625,0.344970703125,-0.011962890625,-1.3740458015267174,6.198473282442748,2.564885496183206,5618,-138,8,123.4423828125,-9.40939310427403,0.010512,False,,False,,,,,30
505.01300000000003,2.5431822339999144,-0.94384765625,0.344970703125,-0.011962890625,-1.3740458015267174,6.198473282442748,2.564885496183206,5618,-138,8,123.4423828125,-9.40939310427403,0.010512,False,,False,,,,,30
505.01300000000003,2.5451816469999358,-0.94384765625,0.344970703125,-0.011962890625,-1.3740458015267174,6.198473282442748,2.564885496183206,5618,-138,8,123.4423828125,-9.40939310427403,0.010512,False,,False,,,,,30
505.023,2.5511788310000156,-0.92138671875,0.364013671875,-0.023193359375,0.732824427480916,7.022900763358779,3.0229007633587783,5548,-158,-8,121.904296875,-13.49673832789518,-0.010512,False,,False,,,,,30
505.023,2.553176022999878,-0.92138671875,0.364013671875,-0.023193359375,0.732824427480916,7.022900763358779,3.0229007633587783,5548,-158,-8,121.904296875,-13.49673832789518,-0.010512,False,,False,,,,,30
505.023,2.555180027999995,-0.92138671875,0.364013671875,-0.023193359375,0.732824427480916,7.022900763358779,3.0229007633587783,5548,-158,-8,121.904296875,-13.49673832789518,-0.010512,False,,False,,,,,30
505.023,2.557181218999858,-0.92138671875,0.364013671875,-0.023193359375,0.732824427480916,7.022900763358779,3.0229007633587783,5548,-158,-8,121.904296875,-13.49673832789518,-0.010512,False,,False,,,,,30
505.023,2.559181095999975,-0.92138671875,0.364013671875,-0.023193359375,0.732824427480916,7.022900763358779,3.0229007633587783,5548,-158,-8,121.904296875,-13.49673832789518,-0.010512,False,,False,,,,,30
505.058,2.5837678979999055,-0.9306640625,0.349609375,-0.00537109375,2.045801526717557,6.931297709923664,1.099236641221374,5220,-227,0,114.697265625,-19.06038365597151,0.0,False,,False,,,,,30
505.058,2.585762847999831,-0.9306640625,0.349609375,-0.00537109375,2.045801526717557,6.931297709923664,1.099236641221374,5220,-227,0,114.697265625,-19.06038365597151,0.0,False,,False,,,,,30
505.063,2.5877678169999854,-0.926025390625,0.348388671875,-0.008544921875,1.8625954198473282,5.374045801526718,1.0381679389312977,5166,-241,0,113.5107421875,-26.350049014815795,0.0,False,,False,,,,,30
505.063,2.5897683789999064,-0.926025390625,0.348388671875,-0.008544921875,1.8625954198473282,5.374045801526718,1.0381679389312977,5166,-241,0,113.5107421875,-26.350049014815795,0.0,False,,False,,,,,30
505.068,2.591772106999997,-0.931640625,0.369384765625,-0.010498046875,2.259541984732824,6.137404580152672,0.6412213740458015,5110,-256,3,112.2802734375,-35.42701353674142,0.003942,False,,False,,,,,30
505.068,2.5937710569999126,-0.931640625,0.369384765625,-0.010498046875,2.259541984732824,6.137404580152672,0.6412213740458015,5110,-256,3,112.2802734375,-35.42701353674142,0.003942,False,,False,,,,,30
505.068,2.5957725069999924,-0.931640625,0.369384765625,-0.010498046875,2.259541984732824,6.137404580152672,0.6412213740458015,5110,-256,3,112.2802734375,-35.42701353674142,0.003942,False,,False,,,,,30
505.07300000000004,2.5977753829999983,-0.89208984375,0.36572265625,-0.030029296875,1.4351145038167938,4.916030534351145,1.4045801526717556,5046,-295,6,110.8740234375,-46.1734465401979,0.007884,False,,False,,,,,30
505.07300000000004,2.5997732039998027,-0.89208984375,0.36572265625,-0.030029296875,1.4351145038167938,4.916030534351145,1.4045801526717556,5046,-295,6,110.8740234375,-46.1734465401979,0.007884,False,,False,,,,,30
505.07800000000003,2.60177834000001,-0.88623046875,0.340087890625,-0.032958984375,1.1603053435114503,5.038167938931298,0.5801526717557252,4979,-300,5,109.40185546875,-58.49607473718378,0.0065699999999999995,False,,False,,,,,30
505.07800000000003,2.60378995699989,-0.88623046875,0.340087890625,-0.032958984375,1.1603053435114503,5.038167938931298,0.5801526717557252,4979,-300,5,109.40185546875,-58.49607473718378,0.0065699999999999995,False,,False,,,,,30
505.07800000000003,2.605779517999963,-0.88623046875,0.340087890625,-0.032958984375,1.1603053435114503,5.038167938931298,0.5801526717557252,4979,-300,5,109.40185546875,-58.49607473718378,0.0065699999999999995,False,,False,,,,,30
505.083,2.6077813939998578,-0.906005859375,0.347900390625,-0.028076171875,3.7557251908396947,5.038167938931298,-0.0916030534351145,4912,-291,-5,107.9296875,-72.18256838630538,-0.0065699999999999995,False,,False,,,,,30
505.083,2.6105144069999824,-0.906005859375,0.347900390625,-0.028076171875,3.7557251908396947,5.038167938931298,-0.0916030534351145,4912,-291,-5,107.9296875,-72.18256838630538,-0.0065699999999999995,False,,False,,,,,30
505.088,2.6125159690000146,-0.900634765625,0.342529296875,-0.027587890625,5.374045801526718,4.0,-0.15267175572519084,4847,-297,-4,106.50146484375,-86.82850827513063,-0.005256,False,,False,,,,,30
505.088,2.6145144189999883,-0.900634765625,0.342529296875,-0.027587890625,5.374045801526718,4.0,-0.15267175572519084,4847,-297,-4,106.50146484375,-86.82850827513063,-0.005256,False,,False,,,,,30
505.093,2.6165169989999413,-0.8974609375,0.343017578125,-0.02880859375,5.6183206106870225,3.450381679389313,-0.0916030534351145,4780,-298,4,105.029296875,-102.03367604695609,0.005256,False,,False,,,,,30
505.093,2.6185183009999946,-0.8974609375,0.343017578125,-0.02880859375,5.6183206106870225,3.450381679389313,-0.0916030534351145,4780,-298,4,105.029296875,-102.03367604695609,0.005256,False,,False,,,,,30
505.093,2.620517139999947,-0.8974609375,0.343017578125,-0.02880859375,5.6183206106870225,3.450381679389313,-0.0916030534351145,4780,-298,4,105.029296875,-102.03367604695609,0.005256,False,,False,,,,,30
505.098,2.622522219999837,-0.875,0.3359375,-0.034423828125,4.580152671755725,3.0229007633587783,0.0,4709,-323,4,103.46923828125,-117.58223959666714,0.005256,False,,False,,,,,30
505.098,2.6245228929999485,-0.875,0.3359375,-0.034423828125,4.580152671755725,3.0229007633587783,0.0,4709,-323,4,103.46923828125,-117.58223959666714,0.005256,False,,False,,,,,30
505.103,2.62652465799988,-0.879638671875,0.328125,-0.03515625,4.244274809160305,2.564885496183206,-0.5190839694656488,4635,-325,2,101.84326171875,-133.39994271370992,0.002628,False,,False,,,,,30
505.103,2.6285261639998225,-0.879638671875,0.328125,-0.03515625,4.244274809160305,2.564885496183206,-0.5190839694656488,4635,-325,2,101.84326171875,-133.39994271370992,0.002628,False,,False,,,,,30
505.103,2.630524947999902,-0.879638671875,0.328125,-0.03515625,4.244274809160305,2.564885496183206,-0.5190839694656488,4635,-325,2,101.84326171875,-133.39994271370992,0.002628,False,,False,,,,,30
505.108,2.632527620000019,-0.867431640625,0.327880859375,-0.036865234375,3.3893129770992365,2.5343511450381677,-0.4580152671755725,4552,-368,-6,100.01953125,-149.51621406550274,-0.007884,False,,False,,,,,30
505.108,2.634530236999808,-0.867431640625,0.327880859375,-0.036865234375,3.3893129770992365,2.5343511450381677,-0.4580152671755725,4552,-368,-6,100.01953125,-149.51621406550274,-0.007884,False,,False,,,,,30
505.113,2.6365307609999036,-0.87890625,0.3291015625,-0.036865234375,4.702290076335878,1.8625954198473282,-1.0381679389312977,4465,-372,0,98.10791015625,-166.04685907177162,0.0,False,,False,,,,,30
505.113,2.638537081999857,-0.87890625,0.3291015625,-0.036865234375,4.702290076335878,1.8625954198473282,-1.0381679389312977,4465,-372,0,98.10791015625,-166.04685907177162,0.0,False,,False,,,,,30
505.113,2.6405358099998466,-0.87890625,0.3291015625,-0.036865234375,4.702290076335878,1.8625954198473282,-1.0381679389312977,4465,-372,0,98.10791015625,-166.04685907177162,0.0,False,,False,,,,,30
505.118,2.6425414639998053,-0.8583984375,0.338623046875,-0.044189453125,5.129770992366412,1.5572519083969465,-0.916030534351145,4380,-375,7,96.240234375,-182.92366906145932,0.009198,False,,False,,,,,30
505.118,2.6445401179998953,-0.8583984375,0.338623046875,-0.044189453125,5.129770992366412,1.5572519083969465,-0.916030534351145,4380,-375,7,96.240234375,-182.92366906145932,0.009198,False,,False,,,,,30
505.123,2.64654204999988,-0.863037109375,0.342041015625,-0.0439453125,5.557251908396946,0.732824427480916,-0.7022900763358778,4290,-397,5,94.2626953125,-199.92537026346474,0.0065699999999999995,False,,False,,,,,30
505.123,2.648544147999928,-0.863037109375,0.342041015625,-0.0439453125,5.557251908396946,0.732824427480916,-0.7022900763358778,4290,-397,5,94.2626953125,-199.92537026346474,0.0065699999999999995,False,,False,,,,,30
505.123,2.6505422279999493,-0.863037109375,0.342041015625,-0.0439453125,5.557251908396946,0.732824427480916,-0.7022900763358778,4290,-397,5,94.2626953125,-199.92537026346474,0.0065699999999999995,False,,False,,,,,30
505.128,2.652546252999855,-0.843017578125,0.35546875,-0.0439453125,3.8167938931297707,-0.24427480916030533,0.2748091603053435,4190,-440,4,92.0654296875,-217.07180977567157,0.005256,False,,False,,,,,30
505.128,2.6545497209999667,-0.843017578125,0.35546875,-0.0439453125,3.8167938931297707,-0.24427480916030533,0.2748091603053435,4190,-440,4,92.0654296875,-217.07180977567157,0.005256,False,,False,,,,,30
505.13300000000004,2.6565497459998824,-0.85400390625,0.37158203125,-0.037841796875,3.4198473282442747,0.3053435114503817,1.2519083969465647,4086,-471,0,89.7802734375,-234.55257795853373,0.0,False,,False,,,,,30
505.13300000000004,2.6585510299998987,-0.85400390625,0.37158203125,-0.037841796875,3.4198473282442747,0.3053435114503817,1.2519083969465647,4086,-471,0,89.7802734375,-234.55257795853373,0.0,False,,False,,,,,30
505.13300000000004,2.660549849999825,-0.85400390625,0.37158203125,-0.037841796875,3.4198473282442747,0.3053435114503817,1.2519083969465647,4086,-471,0,89.7802734375,-234.55257795853373,0.0,False,,False,,,,,30
505.13800000000003,2.6625536889998784,-0.844970703125,0.33984375,-0.045654296875,4.183206106870228,-1.1908396946564885,0.24427480916030533,3979,-472,-4,87.42919921875,-252.39422831445324,-0.005256,False,,False,,,,,30
505.13800000000003,2.6645549729998947,-0.844970703125,0.33984375,-0.045654296875,4.183206106870228,-1.1908396946564885,0.24427480916030533,3979,-472,-4,87.42919921875,-252.39422831445324,-0.005256,False,,False,,,,,30
505.14300000000003,2.6665569049998794,-0.8525390625,0.353271484375,-0.039306640625,5.770992366412213,-0.8854961832061068,0.6717557251908397,3867,-483,-4,84.96826171875,-270.51826939170496,-0.005256,False,,False,,,,,30
505.14300000000003,2.668563465999796,-0.8525390625,0.353271484375,-0.039306640625,5.770992366412213,-0.8854961832061068,0.6717557251908397,3867,-483,-4,84.96826171875,-270.51826939170496,-0.005256,False,,False,,,,,30
505.14300000000003,2.670565545999807,-0.8525390625,0.353271484375,-0.039306640625,5.770992366412213,-0.8854961832061068,0.6717557251908397,3867,-483,-4,84.96826171875,-270.51826939170496,-0.005256,False,,False,,,,,30
505.148,2.6725656449998496,-0.82470703125,0.366455078125,-0.052734375,1.648854961832061,-0.7022900763358778,3.0229007633587783,3750,-511,-4,82.3974609375,-288.9026454478871,-0.005256,False,,False,,,,,30
505.148,2.674566335999998,-0.82470703125,0.366455078125,-0.052734375,1.648854961832061,-0.7022900763358778,3.0229007633587783,3750,-511,-4,82.3974609375,-288.9026454478871,-0.005256,False,,False,,,,,30
505.153,2.6765673789998345,-0.822265625,0.411376953125,-0.045166015625,1.7404580152671756,-1.0381679389312977,4.824427480916031,3629,-535,4,79.73876953125,-307.5410360112086,0.005256,False,,False,,,,,30
505.153,2.678567681000004,-0.822265625,0.411376953125,-0.045166015625,1.7404580152671756,-1.0381679389312977,4.824427480916031,3629,-535,4,79.73876953125,-307.5410360112086,0.005256,False,,False,,,,,30
505.153,2.6805702239998936,-0.822265625,0.411376953125,-0.045166015625,1.7404580152671756,-1.0381679389312977,4.824427480916031,3629,-535,4,79.73876953125,-307.5410360112086,0.005256,False,,False,,,,,30
505.158,2.6825713779999205,-0.7978515625,0.362548828125,-0.06103515625,6.65648854961832,-4.702290076335878,1.7404580152671756,3510,-522,6,77.1240234375,-326.2971451193192,0.007884,False,,False,,,,,30
505.158,2.6846224379999057,-0.7978515625,0.362548828125,-0.06103515625,6.65648854961832,-4.702290076335878,1.7404580152671756,3510,-522,6,77.1240234375,-326.2971451193192,0.007884,False,,False,,,,,30
505.163,2.686610888999894,-0.885009765625,0.398681640625,-0.00439453125,14.595419847328243,-6.900763358778626,1.129770992366412,3390,-528,6,74.4873046875,-344.89600701113966,0.007884,False,,False,,,,,30
505.163,2.6886133949999476,-0.885009765625,0.398681640625,-0.00439453125,14.595419847328243,-6.900763358778626,1.129770992366412,3390,-528,6,74.4873046875,-344.89600701113966,0.007884,False,,False,,,,,30
505.163,2.690612030000011,-0.885009765625,0.398681640625,-0.00439453125,14.595419847328243,-6.900763358778626,1.129770992366412,3390,-528,6,74.4873046875,-344.89600701113966,0.007884,False,,False,,,,,30
505.168,2.6926146839998637,-0.88916015625,0.28271484375,-0.03076171875,6.8396946564885495,-6.809160305343511,0.8549618320610687,3267,-542,-1,71.78466796875,-363.1415345793062,-0.001314,False,,False,,,,,30
505.168,2.6946170229998643,-0.88916015625,0.28271484375,-0.03076171875,6.8396946564885495,-6.809160305343511,0.8549618320610687,3267,-542,-1,71.78466796875,-363.1415345793062,-0.001314,False,,False,,,,,30
505.173,2.6966182520000075,-0.923583984375,0.31103515625,-0.02978515625,3.7251908396946565,-6.259541984732824,1.618320610687023,3137,-561,-3,68.92822265625,-381.04975747158454,-0.003942,False,,False,,,,,30
505.173,2.698816957999952,-0.923583984375,0.31103515625,-0.02978515625,3.7251908396946565,-6.259541984732824,1.618320610687023,3137,-561,-3,68.92822265625,-381.04975747158454,-0.003942,False,,False,,,,,30
505.173,2.700816611999926,-0.923583984375,0.31103515625,-0.02978515625,3.7251908396946565,-6.259541984732824,1.618320610687023,3137,-561,-3,68.92822265625,-381.04975747158454,-0.003942,False,,False,,,,,30
505.178,2.7028174699999,-0.921875,0.3447265625,-0.040283203125,4.824427480916031,-7.7251908396946565,1.0076335877862594,3004,-584,1,66.005859375,-398.73447541096795,0.001314,False,,False,,,,,30
505.178,2.704854752999836,-0.921875,0.3447265625,-0.040283203125,4.824427480916031,-7.7251908396946565,1.0076335877862594,3004,-584,1,66.005859375,-398.73447541096795,0.001314,False,,False,,,,,30
505.183,2.7068441659998825,-0.916748046875,0.36865234375,-0.054443359375,7.145038167938931,-8.793893129770993,0.6717557251908397,2871,-597,-4,63.08349609375,-416.1827881443256,-0.005256,False,,False,,,,,30
505.183,2.7088932459998887,-0.916748046875,0.36865234375,-0.054443359375,7.145038167938931,-8.793893129770993,0.6717557251908397,2871,-597,-4,63.08349609375,-416.1827881443256,-0.005256,False,,False,,,,,30
505.183,2.7108809549999933,-0.916748046875,0.36865234375,-0.054443359375,7.145038167938931,-8.793893129770993,0.6717557251908397,2871,-597,-4,63.08349609375,-416.1827881443256,-0.005256,False,,False,,,,,30
505.188,2.7128843319999305,-0.947021484375,0.359619140625,-0.0517578125,7.267175572519084,-9.038167938931297,1.8931297709923662,2732,-615,-8,60.029296875,-433.3236581835191,-0.010512,False,,False,,,,,30
505.188,2.7148863369998253,-0.947021484375,0.359619140625,-0.0517578125,7.267175572519084,-9.038167938931297,1.8931297709923662,2732,-615,-8,60.029296875,-433.3236581835191,-0.010512,False,,False,,,,,30
505.193,2.7168890279999687,-0.94287109375,0.337158203125,-0.067138671875,5.893129770992366,-9.068702290076336,1.7709923664122136,2586,-630,-9,56.8212890625,-450.26122401096603,-0.011826,False,,False,,,,,30
505.193,2.7188872749998154,-0.94287109375,0.337158203125,-0.067138671875,5.893129770992366,-9.068702290076336,1.7709923664122136,2586,-630,-9,56.8212890625,-450.26122401096603,-0.011826,False,,False,,,,,30
505.193,2.720890799000017,-0.94287109375,0.337158203125,-0.067138671875,5.893129770992366,-9.068702290076336,1.7709923664122136,2586,-630,-9,56.8212890625,-450.26122401096603,-0.011826,False,,False,,,,,30
505.19800000000004,2.7228921759999594,-0.973388671875,0.347412109375,-0.06103515625,6.870229007633587,-8.335877862595419,1.984732824427481,2441,-643,-5,53.63525390625,-467.08561366573224,-0.0065699999999999995,False,,False,,,,,30
505.19800000000004,2.724894847999849,-0.973388671875,0.347412109375,-0.06103515625,6.870229007633587,-8.335877862595419,1.984732824427481,2441,-643,-5,53.63525390625,-467.08561366573224,-0.0065699999999999995,False,,False,,,,,30
505.20300000000003,2.7268974469998284,-0.95654296875,0.350341796875,-0.06884765625,7.145038167938931,-8.366412213740457,2.687022900763359,2291,-658,-5,50.33935546875,-483.73067990724314,-0.0065699999999999995,False,,False,,,,,30
505.20300000000003,2.7288980079999874,-0.95654296875,0.350341796875,-0.06884765625,7.145038167938931,-8.366412213740457,2.687022900763359,2291,-658,-5,50.33935546875,-483.73067990724314,-0.0065699999999999995,False,,False,,,,,30
505.20300000000003,2.730895829000019,-0.95654296875,0.350341796875,-0.06884765625,7.145038167938931,-8.366412213740457,2.687022900763359,2291,-658,-5,50.33935546875,-483.73067990724314,-0.0065699999999999995,False,,False,,,,,30
505.208,2.7329005569999936,-0.978515625,0.34326171875,-0.0576171875,7.0534351145038165,-8.67175572519084,2.931297709923664,2139,-670,0,46.99951171875,-500.1595588812199,0.0,False,,False,,,,,30
505.208,2.734900062999941,-0.978515625,0.34326171875,-0.0576171875,7.0534351145038165,-8.67175572519084,2.931297709923664,2139,-670,0,46.99951171875,-500.1595588812199,0.0,False,,False,,,,,30
505.213,2.736902531999931,-0.978271484375,0.34765625,-0.062744140625,7.877862595419847,-9.31297709923664,3.0534351145038165,1986,-674,1,43.6376953125,-516.328605098393,0.001314,False,,False,,,,,30
505.213,2.7389039820000107,-0.978271484375,0.34765625,-0.062744140625,7.877862595419847,-9.31297709923664,3.0534351145038165,1986,-674,1,43.6376953125,-516.328605098393,0.001314,False,,False,,,,,30
505.213,2.7409060799998315,-0.978271484375,0.34765625,-0.062744140625,7.877862595419847,-9.31297709923664,3.0534351145038165,1986,-674,1,43.6376953125,-516.328605098393,0.001314,False,,False,,,,,30
505.218,2.742906660000017,-0.978271484375,0.344482421875,-0.062744140625,6.900763358778626,-9.34351145038168,3.450381679389313,1828,-692,4,40.166015625,-532.1891278893343,0.005256,False,,False,,,,,30
505.218,2.7449089069998536,-0.978271484375,0.344482421875,-0.062744140625,6.900763358778626,-9.34351145038168,3.450381679389313,1828,-692,4,40.166015625,-532.1891278893343,0.005256,False,,False,,,,,30
505.223,2.7469093759998486,-0.98291015625,0.333984375,-0.051025390625,6.045801526717557,-8.67175572519084,3.3587786259541983,1668,-696,3,36.650390625,-547.768496183749,0.003942,False,,False,,,,,30
505.223,2.7489104369999495,-0.98291015625,0.333984375,-0.051025390625,6.045801526717557,-8.67175572519084,3.3587786259541983,1668,-696,3,36.650390625,-547.768496183749,0.003942,False,,False,,,,,30
505.223,2.7509129609998126,-0.98291015625,0.333984375,-0.051025390625,6.045801526717557,-8.67175572519084,3.3587786259541983,1668,-696,3,36.650390625,-547.768496183749,0.003942,False,,False,,,,,30
505.228,2.752910707999945,-0.992919921875,0.34619140625,-0.053955078125,7.236641221374046,-9.557251908396946,3.5725190839694654,1510,-706,-3,33.1787109375,-562.9982022000036,-0.003942,False,,False,,,,,30
505.228,2.7549148069999774,-0.992919921875,0.34619140625,-0.053955078125,7.236641221374046,-9.557251908396946,3.5725190839694654,1510,-706,-3,33.1787109375,-562.9982022000036,-0.003942,False,,False,,,,,30
505.233,2.756915571999798,-0.991455078125,0.337158203125,-0.048583984375,5.83206106870229,-9.709923664122137,3.541984732824427,1348,-713,-2,29.619140625,-577.7463799790085,-0.002628,False,,False,,,,,30
505.233,2.7589150960000097,-0.991455078125,0.337158203125,-0.048583984375,5.83206106870229,-9.709923664122137,3.541984732824427,1348,-713,-2,29.619140625,-577.7463799790085,-0.002628,False,,False,,,,,30
505.233,2.76091871299991,-0.991455078125,0.337158203125,-0.048583984375,5.83206106870229,-9.709923664122137,3.541984732824427,1348,-713,-2,29.619140625,-577.7463799790085,-0.002628,False,,False,,,,,30
505.238,2.762918070999831,-1.005859375,0.333740234375,-0.044921875,7.083969465648854,-9.862595419847327,2.564885496183206,1188,-702,-3,26.103515625,-591.9414407122414,-0.003942,False,,False,,,,,30
505.238,2.7649187800000163,-1.005859375,0.333740234375,-0.044921875,7.083969465648854,-9.862595419847327,2.564885496183206,1188,-702,-3,26.103515625,-591.9414407122414,-0.003942,False,,False,,,,,30
505.243,2.7669228419999854,-1.0029296875,0.352294921875,-0.04296875,9.129770992366412,-9.862595419847327,2.748091603053435,1030,-699,2,22.6318359375,-605.435970862324,0.002628,False,,False,,,,,30
505.243,2.768924273999801,-1.0029296875,0.352294921875,-0.04296875,9.129770992366412,-9.862595419847327,2.748091603053435,1030,-699,2,22.6318359375,-605.435970862324,0.002628,False,,False,,,,,30
505.243,2.770923778999986,-1.0029296875,0.352294921875,-0.04296875,9.129770992366412,-9.862595419847327,2.748091603053435,1030,-699,2,22.6318359375,-605.435970862324,0.002628,False,,False,,,,,30
505.248,2.7729278219999287,-1.015625,0.330322265625,-0.049560546875,9.954198473282442,-9.648854961832061,2.6259541984732824,870,-698,1,19.1162109375,-618.0848757300809,0.001314,False,,False,,,,,30
505.248,2.77492977299994,-1.015625,0.330322265625,-0.049560546875,9.954198473282442,-9.648854961832061,2.6259541984732824,870,-698,1,19.1162109375,-618.0848757300809,0.001314,False,,False,,,,,30
505.253,2.7769311669999297,-1.03369140625,0.328369140625,-0.047119140625,11.083969465648854,-9.557251908396946,2.8091603053435112,746,-683,-3,16.3916015625,-629.3014672596347,-0.003942,False,,False,,,,,30
505.253,2.778932728999962,-1.03369140625,0.328369140625,-0.047119140625,11.083969465648854,-9.557251908396946,2.8091603053435112,746,-683,-3,16.3916015625,-629.3014672596347,-0.003942,False,,False,,,,,30
505.253,2.7809317530000044,-1.03369140625,0.328369140625,-0.047119140625,11.083969465648854,-9.557251908396946,2.8091603053435112,746,-683,-3,16.3916015625,-629.3014672596347,-0.003942,False,,False,,,,,30
505.25800000000004,2.782936184999926,-1.021728515625,0.326904296875,-0.052001953125,10.106870229007633,-8.610687022900763,4.091603053435114,590,-682,6,12.9638671875,-638.5516681361484,0.007884,False,,False,,,,,30
505.25800000000004,2.784936782999921,-1.021728515625,0.326904296875,-0.052001953125,10.106870229007633,-8.610687022900763,4.091603053435114,590,-682,6,12.9638671875,-638.5516681361484,0.007884,False,,False,,,,,30
505.26300000000003,2.7869388079998316,-1.0322265625,0.3291015625,-0.05615234375,9.404580152671755,-8.183206106870228,4.67175572519084,435,-682,4,9.55810546875,-646.4513587126745,0.005256,False,,False,,,,,30
505.26300000000003,2.7889392769998267,-1.0322265625,0.3291015625,-0.05615234375,9.404580152671755,-8.183206106870228,4.67175572519084,435,-682,4,9.55810546875,-646.4513587126745,0.005256,False,,False,,,,,30
505.26300000000003,2.790941078999822,-1.0322265625,0.3291015625,-0.05615234375,9.404580152671755,-8.183206106870228,4.67175572519084,435,-682,4,9.55810546875,-646.4513587126745,0.005256,False,,False,,,,,30
505.26800000000003,2.792940455000007,-1.042236328125,0.32080078125,-0.061767578125,11.297709923664122,-7.083969465648854,5.221374045801526,284,-670,1,6.240234375,-653.5197916003764,0.001314,False,,False,,,,,30
505.26800000000003,2.794944515999987,-1.042236328125,0.32080078125,-0.061767578125,11.297709923664122,-7.083969465648854,5.221374045801526,284,-670,1,6.240234375,-653.5197916003764,0.001314,False,,False,,,,,30
505.273,2.7969466699998975,-1.0341796875,0.309814453125,-0.072509765625,10.900763358778626,-6.290076335877862,6.3206106870229,132,-670,0,2.900390625,-659.6625876118824,0.0,False,,False,,,,,30
505.273,2.7989474729999984,-1.0341796875,0.309814453125,-0.072509765625,10.900763358778626,-6.290076335877862,6.3206106870229,132,-670,0,2.900390625,-659.6625876118824,0.0,False,,False,,,,,30
505.273,2.800949755999909,-1.0341796875,0.309814453125,-0.072509765625,10.900763358778626,-6.290076335877862,6.3206106870229,132,-670,0,2.900390625,-659.6625876118824,0.0,False,,False,,,,,30
505.278,2.802950613999883,-1.039794921875,0.3056640625,-0.073974609375,9.221374045801527,-5.068702290076335,7.419847328244274,-14,-653,1,-0.3076171875,-664.8141436710923,0.001314,False,,False,,,,,30
505.278,2.8049498419998145,-1.039794921875,0.3056640625,-0.073974609375,9.221374045801527,-5.068702290076335,7.419847328244274,-14,-653,1,-0.3076171875,-664.8141436710923,0.001314,False,,False,,,,,30
505.283,2.806953347999979,-1.033203125,0.277099609375,-0.08251953125,8.732824427480915,-4.213740458015267,7.175572519083969,-157,-629,-1,-3.44970703125,-668.8384043525084,-0.001314,False,,False,,,,,30
505.283,2.8089550579998104,-1.033203125,0.277099609375,-0.08251953125,8.732824427480915,-4.213740458015267,7.175572519083969,-157,-629,-1,-3.44970703125,-668.8384043525084,-0.001314,False,,False,,,,,30
505.283,2.8109569519999695,-1.033203125,0.277099609375,-0.08251953125,8.732824427480915,-4.213740458015267,7.175572519083969,-157,-629,-1,-3.44970703125,-668.8384043525084,-0.001314,False,,False,,,,,30
505.288,2.812957883999843,-1.01513671875,0.271728515625,-0.06884765625,10.839694656488549,-1.9236641221374045,7.755725190839694,-294,-602,0,-6.4599609375,-671.5741349992966,0.0,False,,False,,,,,30
505.288,2.814959130999796,-1.01513671875,0.271728515625,-0.06884765625,10.839694656488549,-1.9236641221374045,7.755725190839694,-294,-602,0,-6.4599609375,-671.5741349992966,0.0,False,,False,,,,,30
505.293,2.816960543999812,-1.010498046875,0.269287109375,-0.058349609375,9.618320610687023,-0.7633587786259541,8.854961832061068,-426,-582,-1,-9.3603515625,-672.8731883116506,-0.001314,False,,False,,,,,30
505.293,2.81896136499995,-1.010498046875,0.269287109375,-0.058349609375,9.618320610687023,-0.7633587786259541,8.854961832061068,-426,-582,-1,-9.3603515625,-672.8731883116506,-0.001314,False,,False,,,,,30
505.293,2.820962647999977,-1.010498046875,0.269287109375,-0.058349609375,9.618320610687023,-0.7633587786259541,8.854961832061068,-426,-582,-1,-9.3603515625,-672.8731883116506,-0.001314,False,,False,,,,,30
505.298,2.822961912999972,-1.00830078125,0.2353515625,-0.055908203125,9.404580152671755,-0.3053435114503817,8.183206106870228,-553,-556,-5,-12.15087890625,-672.6164352468745,-0.0065699999999999995,False,,False,,,,,30
505.298,2.824963196999988,-1.00830078125,0.2353515625,-0.055908203125,9.404580152671755,-0.3053435114503817,8.183206106870228,-553,-556,-5,-12.15087890625,-672.6164352468745,-0.0065699999999999995,False,,False,,,,,30
505.303,2.826968109999825,-1.00732421875,0.2421875,-0.0419921875,10.564885496183205,0.6412213740458015,8.183206106870228,-670,-516,1,-14.7216796875,-670.6630193266997,0.001314,False,,False,,,,,30
505.303,2.829018503999805,-1.00732421875,0.2421875,-0.0419921875,10.564885496183205,0.6412213740458015,8.183206106870228,-670,-516,1,-14.7216796875,-670.6630193266997,0.001314,False,,False,,,,,30
505.303,2.8310191209998266,-1.00732421875,0.2421875,-0.0419921875,10.564885496183205,0.6412213740458015,8.183206106870228,-670,-516,1,-14.7216796875,-670.6630193266997,0.001314,False,,False,,,,,30
505.308,2.833020997999938,-0.98681640625,0.23681640625,-0.0400390625,9.557251908396946,0.6412213740458015,8.854961832061068,-781,-492,0,-17.16064453125,-666.8241036264911,0.0,False,,False,,,,,30
505.308,2.8350233179999123,-0.98681640625,0.23681640625,-0.0400390625,9.557251908396946,0.6412213740458015,8.854961832061068,-781,-492,0,-17.16064453125,-666.8241036264911,0.0,False,,False,,,,,30
505.313,2.8370249909999075,-0.992919921875,0.243896484375,-0.0322265625,8.427480916030534,1.129770992366412,9.34351145038168,-889,-473,-7,-19.53369140625,-661.0644056122335,-0.009198,False,,False,,,,,30
505.313,2.8390254779999395,-0.992919921875,0.243896484375,-0.0322265625,8.427480916030534,1.129770992366412,9.34351145038168,-889,-473,-7,-19.53369140625,-661.0644056122335,-0.009198,False,,False,,,,,30
505.313,2.8410279469999296,-0.992919921875,0.243896484375,-0.0322265625,8.427480916030534,1.129770992366412,9.34351145038168,-889,-473,-7,-19.53369140625,-661.0644056122335,-0.009198,False,,False,,,,,30
505.318,2.843028396999898,-0.991455078125,0.228759765625,-0.037353515625,8.763358778625953,0.5801526717557252,8.427480916030534,-991,-434,-4,-21.77490234375,-653.4936223892076,-0.005256,False,,False,,,,,30
505.318,2.845029310999962,-0.991455078125,0.228759765625,-0.037353515625,8.763358778625953,0.5801526717557252,8.427480916030534,-991,-434,-4,-21.77490234375,-653.4936223892076,-0.005256,False,,False,,,,,30
505.32300000000004,2.847030926999878,-0.988037109375,0.241943359375,-0.037109375,10.473282442748092,0.3053435114503817,7.938931297709924,-1079,-383,2,-23.70849609375,-644.0547555378807,0.002628,False,,False,,,,,30
505.32300000000004,2.8490319889999682,-0.988037109375,0.241943359375,-0.037109375,10.473282442748092,0.3053435114503817,7.938931297709924,-1079,-383,2,-23.70849609375,-644.0547555378807,0.002628,False,,False,,,,,30
505.32300000000004,2.851032957999905,-0.988037109375,0.241943359375,-0.037109375,10.473282442748092,0.3053435114503817,7.938931297709924,-1079,-383,2,-23.70849609375,-644.0547555378807,0.002628,False,,False,,,,,30
505.32800000000003,2.853031944999884,-0.9794921875,0.240478515625,-0.028076171875,9.465648854961831,-1.282442748091603,8.0,-1165,-371,1,-25.59814453125,-632.6157402948847,0.001314,False,,False,,,,,30
505.32800000000003,2.8550374320000174,-0.9794921875,0.240478515625,-0.028076171875,9.465648854961831,-1.282442748091603,8.0,-1165,-371,1,-25.59814453125,-632.6157402948847,0.001314,False,,False,,,,,30
505.333,2.857036752999875,-0.980712890625,0.229736328125,-0.0322265625,7.419847328244274,-1.3740458015267174,7.450381679389313,-1247,-360,-6,-27.39990234375,-619.3178083617402,-0.007884,False,,False,,,,,30
505.333,2.8590379999998277,-0.980712890625,0.229736328125,-0.0322265625,7.419847328244274,-1.3740458015267174,7.450381679389313,-1247,-360,-6,-27.39990234375,-619.3178083617402,-0.007884,False,,False,,,,,30
505.333,2.8610408759998336,-0.980712890625,0.229736328125,-0.0322265625,7.419847328244274,-1.3740458015267174,7.450381679389313,-1247,-360,-6,-27.39990234375,-619.3178083617402,-0.007884,False,,False,,,,,30
505.338,2.8630389929999183,-0.97802734375,0.258056640625,-0.035400390625,5.251908396946565,-0.3969465648854962,8.458015267175572,-1326,-353,-1,-29.1357421875,-604.4493662777477,-0.001314,False,,False,,,,,30
505.338,2.8650396470000032,-0.97802734375,0.258056640625,-0.035400390625,5.251908396946565,-0.3969465648854962,8.458015267175572,-1326,-353,-1,-29.1357421875,-604.4493662777477,-0.001314,False,,False,,,,,30
505.343,2.867044394000004,-0.96240234375,0.254638671875,-0.040283203125,4.7328244274809155,-1.0381679389312977,7.3893129770992365,-1401,-325,2,-30.78369140625,-588.258698663431,0.002628,False,,False,,,,,30
505.343,2.8690459360000204,-0.96240234375,0.254638671875,-0.040283203125,4.7328244274809155,-1.0381679389312977,7.3893129770992365,-1401,-325,2,-30.78369140625,-588.258698663431,0.002628,False,,False,,,,,30
505.343,2.8710491829999683,-0.96240234375,0.254638671875,-0.040283203125,4.7328244274809155,-1.0381679389312977,7.3893129770992365,-1401,-325,2,-30.78369140625,-588.258698663431,0.002628,False,,False,,,,,30
505.348,2.8736086429998977,-0.96337890625,0.2705078125,-0.0361328125,8.916030534351144,-2.381679389312977,5.648854961832061,-1466,-284,1,-32.2119140625,-570.8614104182639,0.001314,False,,False,,,,,30
505.348,2.8756074639998133,-0.96337890625,0.2705078125,-0.0361328125,8.916030534351144,-2.381679389312977,5.648854961832061,-1466,-284,1,-32.2119140625,-570.8614104182639,0.001314,False,,False,,,,,30
505.353,2.8776089509999565,-0.9716796875,0.269287109375,-0.02734375,8.549618320610687,-2.564885496183206,5.83206106870229,-1524,-260,-3,-33.486328125,-552.212607899469,-0.003942,False,,False,,,,,30
505.353,2.8796114019999095,-0.9716796875,0.269287109375,-0.02734375,8.549618320610687,-2.564885496183206,5.83206106870229,-1524,-260,-3,-33.486328125,-552.212607899469,-0.003942,False,,False,,,,,30
505.358,2.8816130739999153,-0.968017578125,0.2783203125,-0.033935546875,6.442748091603053,-2.4427480916030535,6.687022900763359,-1578,-245,-2,-34.6728515625,-532.3405840952819,-0.002628,False,,False,,,,,30
505.358,2.8836145799998576,-0.968017578125,0.2783203125,-0.033935546875,6.442748091603053,-2.4427480916030535,6.687022900763359,-1578,-245,-2,-34.6728515625,-532.3405840952819,-0.002628,False,,False,,,,,30
505.358,2.8856268999998065,-0.968017578125,0.2783203125,-0.033935546875,6.442748091603053,-2.4427480916030535,6.687022900763359,-1578,-245,-2,-34.6728515625,-532.3405840952819,-0.002628,False,,False,,,,,30
505.363,2.8876364430000194,-0.936279296875,0.266357421875,-0.050537109375,4.305343511450381,-1.7099236641221374,6.534351145038167,-1634,-241,-1,-35.9033203125,-511.52547973690804,-0.001314,False,,False,,,,,30
505.363,2.889629374999913,-0.936279296875,0.266357421875,-0.050537109375,4.305343511450381,-1.7099236641221374,6.534351145038167,-1634,-241,-1,-35.9033203125,-511.52547973690804,-0.001314,False,,False,,,,,30
505.368,2.8916285660000085,-0.939208984375,0.314697265625,-0.048583984375,4.916030534351145,-1.2213740458015268,7.450381679389313,-1688,-230,0,-37.08984375,-490.190557172467,0.0,False,,False,,,,,30
505.368,2.8936338679998244,-0.939208984375,0.314697265625,-0.048583984375,4.916030534351145,-1.2213740458015268,7.450381679389313,-1688,-230,0,-37.08984375,-490.190557172467,0.0,False,,False,,,,,30
505.368,2.8956357819999994,-0.939208984375,0.314697265625,-0.048583984375,4.916030534351145,-1.2213740458015268,7.450381679389313,-1688,-230,0,-37.08984375,-490.190557172467,0.0,False,,False,,,,,30
505.373,2.8976369909998994,-0.910888671875,0.287353515625,-0.061767578125,5.404580152671755,-1.5877862595419847,6.778625954198473,-1739,-226,-1,-38.21044921875,-468.64994755963943,-0.001314,False,,False,,,,,30
505.373,2.899637700999847,-0.910888671875,0.287353515625,-0.061767578125,5.404580152671755,-1.5877862595419847,6.778625954198473,-1739,-226,-1,-38.21044921875,-468.64994755963943,-0.001314,False,,False,,,,,30
505.378,2.9016396509998685,-0.920654296875,0.292236328125,-0.05615234375,4.7328244274809155,-0.030534351145038167,7.022900763358779,-1791,-221,-1,-39.35302734375,-447.1377842864575,-0.001314,False,,False,,,,,30
505.378,2.903671341999825,-0.920654296875,0.292236328125,-0.05615234375,4.7328244274809155,-0.030534351145038167,7.022900763358779,-1791,-221,-1,-39.35302734375,-447.1377842864575,-0.001314,False,,False,,,,,30
505.378,2.905639125999869,-0.920654296875,0.292236328125,-0.05615234375,4.7328244274809155,-0.030534351145038167,7.022900763358779,-1791,-221,-1,-39.35302734375,-447.1377842864575,-0.001314,False,,False,,,,,30
505.38300000000004,2.907645150999997,-0.94140625,0.28564453125,-0.0556640625,6.045801526717557,-0.7022900763358778,6.595419847328244,-1836,-194,7,-40.341796875,-425.8337518423952,0.009198,False,,False,,,,,30
505.38300000000004,2.9096461189999445,-0.94140625,0.28564453125,-0.0556640625,6.045801526717557,-0.7022900763358778,6.595419847328244,-1836,-194,7,-40.341796875,-425.8337518423952,0.009198,False,,False,,,,,30
505.38800000000003,2.9116458849998708,-0.9580078125,0.290283203125,-0.052734375,7.786259541984733,-0.48854961832061067,6.229007633587786,-1871,-151,15,-41.11083984375,-404.6465297618259,0.019710000000000002,False,,False,,,,,30
505.38800000000003,2.9136475020000034,-0.9580078125,0.290283203125,-0.052734375,7.786259541984733,-0.48854961832061067,6.229007633587786,-1871,-151,15,-41.11083984375,-404.6465297618259,0.019710000000000002,False,,False,,,,,30
505.38800000000003,2.9156475079998927,-0.9580078125,0.290283203125,-0.052734375,7.786259541984733,-0.48854961832061067,6.229007633587786,-1871,-151,15,-41.11083984375,-404.6465297618259,0.019710000000000002,False,,False,,,,,30
505.39300000000003,2.9176512729998194,-0.91650390625,0.24560546875,-0.075439453125,5.190839694656488,-0.7022900763358778,5.343511450381679,-1908,-157,-2,-41.923828125,-383.4661428416322,-0.002628,False,,False,,,,,30
505.39300000000003,2.919653018999952,-0.91650390625,0.24560546875,-0.075439453125,5.190839694656488,-0.7022900763358778,5.343511450381679,-1908,-157,-2,-41.923828125,-383.4661428416322,-0.002628,False,,False,,,,,30
505.398,2.921654672999921,-0.960693359375,0.280517578125,-0.0576171875,6.198473282442748,-0.3053435114503817,5.49618320610687,-1938,-141,0,-42.5830078125,-362.39140995171414,0.0,False,,False,,,,,30
505.398,2.9236538459999792,-0.960693359375,0.280517578125,-0.0576171875,6.198473282442748,-0.3053435114503817,5.49618320610687,-1938,-141,0,-42.5830078125,-362.39140995171414,0.0,False,,False,,,,,30
505.398,2.9256561299998793,-0.960693359375,0.280517578125,-0.0576171875,6.198473282442748,-0.3053435114503817,5.49618320610687,-1938,-141,0,-42.5830078125,-362.39140995171414,0.0,False,,False,,,,,30
505.403,2.9276593579998007,-0.918701171875,0.271484375,-0.06298828125,4.183206106870228,0.3969465648854962,6.229007633587786,-1969,-138,6,-43.26416015625,-341.535361040938,0.007884,False,,False,,,,,30
505.403,2.92966106699987,-0.918701171875,0.271484375,-0.06298828125,4.183206106870228,0.3969465648854962,6.229007633587786,-1969,-138,6,-43.26416015625,-341.535361040938,0.007884,False,,False,,,,,30
505.408,2.9316754249998667,-0.932373046875,0.2900390625,-0.0556640625,4.6106870229007635,0.9770992366412213,6.931297709923664,-1999,-135,0,-43.92333984375,-321.0690326566121,0.0,False,,False,,,,,30
505.408,2.933662393999839,-0.932373046875,0.2900390625,-0.0556640625,4.6106870229007635,0.9770992366412213,6.931297709923664,-1999,-135,0,-43.92333984375,-321.0690326566121,0.0,False,,False,,,,,30
505.408,2.9356630849999874,-0.932373046875,0.2900390625,-0.0556640625,4.6106870229007635,0.9770992366412213,6.931297709923664,-1999,-135,0,-43.92333984375,-321.0690326566121,0.0,False,,False,,,,,30
505.413,2.9376664239998718,-0.9091796875,0.26025390625,-0.060302734375,1.282442748091603,1.7404580152671756,7.022900763358779,-2035,-158,1,-44.71435546875,-301.3050392018746,0.001314,False,,False,,,,,30
505.413,2.939665077999962,-0.9091796875,0.26025390625,-0.060302734375,1.282442748091603,1.7404580152671756,7.022900763358779,-2035,-158,1,-44.71435546875,-301.3050392018746,0.001314,False,,False,,,,,30
505.418,2.9416682689998197,-0.93798828125,0.288818359375,-0.052001953125,1.0687022900763359,2.717557251908397,8.396946564885496,-2075,-177,0,-45.59326171875,-282.65407711117314,0.0,False,,False,,,,,30
505.418,2.9436684419999892,-0.93798828125,0.288818359375,-0.052001953125,1.0687022900763359,2.717557251908397,8.396946564885496,-2075,-177,0,-45.59326171875,-282.65407711117314,0.0,False,,False,,,,,30
505.418,2.945669318,-0.93798828125,0.288818359375,-0.052001953125,1.0687022900763359,2.717557251908397,8.396946564885496,-2075,-177,0,-45.59326171875,-282.65407711117314,0.0,False,,False,,,,,30
505.423,2.947673139000017,-0.89111328125,0.269775390625,-0.05908203125,-0.6412213740458015,3.3587786259541983,8.51908396946565,-2114,-180,-4,-46.4501953125,-265.41201853800715,-0.005256,False,,False,,,,,30
505.423,2.9496727189998637,-0.89111328125,0.269775390625,-0.05908203125,-0.6412213740458015,3.3587786259541983,8.51908396946565,-2114,-180,-4,-46.4501953125,-265.41201853800715,-0.005256,False,,False,,,,,30
505.428,2.9516763359999914,-0.892578125,0.275390625,-0.05126953125,1.2519083969465647,3.5114503816793894,8.396946564885496,-2153,-169,-4,-47.30712890625,-249.6310803025567,-0.005256,False,,False,,,,,30
505.428,2.9536759339998753,-0.892578125,0.275390625,-0.05126953125,1.2519083969465647,3.5114503816793894,8.396946564885496,-2153,-169,-4,-47.30712890625,-249.6310803025567,-0.005256,False,,False,,,,,30
505.428,2.955676847999939,-0.892578125,0.275390625,-0.05126953125,1.2519083969465647,3.5114503816793894,8.396946564885496,-2153,-169,-4,-47.30712890625,-249.6310803025567,-0.005256,False,,False,,,,,30
505.433,2.957680241999924,-0.92724609375,0.284912109375,-0.02978515625,2.2900763358778624,2.748091603053435,8.458015267175572,-2191,-158,-2,-48.14208984375,-235.2701481481112,-0.002628,False,,False,,,,,30
505.433,2.9596793969999453,-0.92724609375,0.284912109375,-0.02978515625,2.2900763358778624,2.748091603053435,8.458015267175572,-2191,-158,-2,-48.14208984375,-235.2701481481112,-0.002628,False,,False,,,,,30
505.438,2.9616838839999673,-0.889404296875,0.265625,-0.04052734375,0.12213740458015267,3.969465648854962,9.251908396946565,-2229,-175,4,-48.97705078125,-222.27423073424868,0.005256,False,,False,,,,,30
505.438,2.9636818899998616,-0.889404296875,0.265625,-0.04052734375,0.12213740458015267,3.969465648854962,9.251908396946565,-2229,-175,4,-48.97705078125,-222.27423073424868,0.005256,False,,False,,,,,30
505.438,2.9656832109999414,-0.889404296875,0.265625,-0.04052734375,0.12213740458015267,3.969465648854962,9.251908396946565,-2229,-175,4,-48.97705078125,-222.27423073424868,0.005256,False,,False,,,,,30
505.443,2.967686771999979,-0.92333984375,0.258056640625,-0.02587890625,1.5572519083969465,2.229007633587786,8.0,-2262,-144,-2,-49.7021484375,-210.5138533547961,-0.002628,False,,False,,,,,30
505.443,2.9696865559999424,-0.92333984375,0.258056640625,-0.02587890625,1.5572519083969465,2.229007633587786,8.0,-2262,-144,-2,-49.7021484375,-210.5138533547961,-0.002628,False,,False,,,,,30
505.44800000000004,2.9716901360000065,-0.917724609375,0.22802734375,-0.02099609375,3.2671755725190836,0.33587786259541985,6.229007633587786,-2290,-121,-8,-50.3173828125,-199.71948289806997,-0.010512,False,,False,,,,,30
505.44800000000004,2.9736884559999908,-0.917724609375,0.22802734375,-0.02099609375,3.2671755725190836,0.33587786259541985,6.229007633587786,-2290,-121,-8,-50.3173828125,-199.71948289806997,-0.010512,False,,False,,,,,30
505.44800000000004,2.9757109619999937,-0.917724609375,0.22802734375,-0.02099609375,3.2671755725190836,0.33587786259541985,6.229007633587786,-2290,-121,-8,-50.3173828125,-199.71948289806997,-0.010512,False,,False,,,,,30
505.45300000000003,2.9776935609997963,-0.940185546875,0.235595703125,-0.017333984375,5.312977099236641,0.15267175572519084,5.893129770992366,-2310,-78,-1,-50.7568359375,-189.52415217014223,-0.001314,False,,False,,,,,30
505.45300000000003,2.979693066999971,-0.940185546875,0.235595703125,-0.017333984375,5.312977099236641,0.15267175572519084,5.893129770992366,-2310,-78,-1,-50.7568359375,-189.52415217014223,-0.001314,False,,False,,,,,30
505.458,2.981699590999824,-0.912841796875,0.243896484375,-0.024658203125,2.687022900763359,0.2748091603053435,6.717557251908397,-2331,-93,4,-51.21826171875,-179.6597116229883,0.005256,False,,False,,,,,30
505.458,2.9836956899998768,-0.912841796875,0.243896484375,-0.024658203125,2.687022900763359,0.2748091603053435,6.717557251908397,-2331,-93,4,-51.21826171875,-179.6597116229883,0.005256,False,,False,,,,,30
505.458,2.9856970839998667,-0.912841796875,0.243896484375,-0.024658203125,2.687022900763359,0.2748091603053435,6.717557251908397,-2331,-93,4,-51.21826171875,-179.6597116229883,0.005256,False,,False,,,,,30
505.463,2.987700589999804,-0.918212890625,0.244140625,-0.03662109375,0.0916030534351145,0.549618320610687,6.564885496183206,-2352,-92,0,-51.6796875,-170.11969615613353,0.0,False,,False,,,,,30
505.463,2.9896994849998464,-0.918212890625,0.244140625,-0.03662109375,0.0916030534351145,0.549618320610687,6.564885496183206,-2352,-92,0,-51.6796875,-170.11969615613353,0.0,False,,False,,,,,30
505.468,2.991703027999847,-0.928955078125,0.263427734375,-0.029296875,5.129770992366412,-0.9465648854961831,4.33587786259542,-2362,-47,-7,-51.8994140625,-160.83033107843713,-0.009198,False,,False,,,,,30
505.468,2.993702348999932,-0.928955078125,0.263427734375,-0.029296875,5.129770992366412,-0.9465648854961831,4.33587786259542,-2362,-47,-7,-51.8994140625,-160.83033107843713,-0.009198,False,,False,,,,,30
505.468,2.99570444699998,-0.928955078125,0.263427734375,-0.029296875,5.129770992366412,-0.9465648854961831,4.33587786259542,-2362,-47,-7,-51.8994140625,-160.83033107843713,-0.009198,False,,False,,,,,30
505.473,2.9977078609999808,-0.9248046875,0.254150390625,-0.0224609375,5.6183206106870225,-1.7099236641221374,3.969465648854962,-2369,-29,-3,-52.05322265625,-151.48748857970065,-0.003942,False,,False,,,,,30
505.473,2.9997063109999544,-0.9248046875,0.254150390625,-0.0224609375,5.6183206106870225,-1.7099236641221374,3.969465648854962,-2369,-29,-3,-52.05322265625,-151.48748857970065,-0.003942,False,,False,,,,,30
505.478,3.0017102799999975,-0.923583984375,0.236572265625,-0.029541015625,3.7862595419847325,-2.0763358778625953,4.030534351145038,-2374,-20,0,-52.1630859375,-141.93282670590776,0.0,False,,False,,,,,30
505.478,3.003709562999802,-0.923583984375,0.236572265625,-0.029541015625,3.7862595419847325,-2.0763358778625953,4.030534351145038,-2374,-20,0,-52.1630859375,-141.93282670590776,0.0,False,,False,,,,,30
505.478,3.0057099399998606,-0.923583984375,0.236572265625,-0.029541015625,3.7862595419847325,-2.0763358778625953,4.030534351145038,-2374,-20,0,-52.1630859375,-141.93282670590776,0.0,False,,False,,,,,30
505.483,3.0077143339999566,-0.923583984375,0.24169921875,-0.031494140625,1.618320610687023,-1.3740458015267174,4.702290076335878,-2384,-39,0,-52.3828125,-132.30741812190615,0.0,False,,False,,,,,30
505.483,3.009713728999941,-0.923583984375,0.24169921875,-0.031494140625,1.618320610687023,-1.3740458015267174,4.702290076335878,-2384,-39,0,-52.3828125,-132.30741812190615,0.0,False,,False,,,,,30
505.488,3.0117173829999047,-0.906494140625,0.2685546875,-0.03759765625,-0.8854961832061068,-0.9770992366412213,5.099236641221374,-2397,-64,-3,-52.66845703125,-122.93729386614442,-0.003942,False,,False,,,,,30
505.488,3.0137163339998096,-0.906494140625,0.2685546875,-0.03759765625,-0.8854961832061068,-0.9770992366412213,5.099236641221374,-2397,-64,-3,-52.66845703125,-122.93729386614442,-0.003942,False,,False,,,,,30
505.488,3.0157173949999105,-0.906494140625,0.2685546875,-0.03759765625,-0.8854961832061068,-0.9770992366412213,5.099236641221374,-2397,-64,-3,-52.66845703125,-122.93729386614442,-0.003942,False,,False,,,,,30
505.493,3.0177212709998003,-0.90625,0.263671875,-0.040283203125,1.3740458015267174,-1.648854961832061,3.9083969465648853,-2408,-52,1,-52.91015625,-114.05987172243127,0.001314,False,,False,,,,,30
505.493,3.019749276999846,-0.90625,0.263671875,-0.040283203125,1.3740458015267174,-1.648854961832061,3.9083969465648853,-2408,-52,1,-52.91015625,-114.05987172243127,0.001314,False,,False,,,,,30
505.498,3.021723449999854,-0.91015625,0.25146484375,-0.033447265625,4.793893129770992,-2.9618320610687023,2.778625954198473,-2412,-11,-2,-52.998046875,-105.59621078841339,-0.002628,False,,False,,,,,30
505.498,3.023722696999812,-0.91015625,0.25146484375,-0.033447265625,4.793893129770992,-2.9618320610687023,2.778625954198473,-2412,-11,-2,-52.998046875,-105.59621078841339,-0.002628,False,,False,,,,,30
