state_time,loop_time,accel_x,accel_y,accel_z,gyro_x,gyro_y,gyro_z,motor_angle,motor_velocity,motor_current,hip_angle,hip_velocity,hip_torque_from_current,did_heel_strike,gait_phase,did_toe_off,commanded_current,commanded_position,commanded_torque,commanded_voltage,temperature
2175.764,1.4699741399999766,-0.86669921875,0.487548828125,0.000244140625,0.12213740458015267,0.33587786259541985,0.183206106870229,4920,-3,-3,0.449761927996548,0.0029849111098500924,-0.003942,False,,False,,,,,32
2175.7690000000002,1.4719788530001097,-0.866455078125,0.483642578125,-0.00244140625,0.15267175572519084,0.183206106870229,0.183206106870229,4921,3,0,0.452233851824673,8.486905352415343,0.0,False,,False,,,,,32
2175.7690000000002,1.4739794560000519,-0.866455078125,0.483642578125,-0.00244140625,0.15267175572519084,0.183206106870229,0.183206106870229,4921,3,0,0.452233851824673,8.486905352415343,0.0,False,,False,,,,,32
2175.7690000000002,1.4759813730001952,-0.866455078125,0.483642578125,-0.00244140625,0.15267175572519084,0.183206106870229,0.183206106870229,4921,3,0,0.452233851824673,8.486905352415343,0.0,False,,False,,,,,32
2175.774,1.4779826040003172,-0.865478515625,0.4873046875,-0.001953125,0.12213740458015267,0.33587786259541985,0.21374045801526717,4920,2,-4,0.449761927996548,40.919405582840206,-0.005256,False,,False,,,,,32
2175.774,1.4799848360003125,-0.865478515625,0.4873046875,-0.001953125,0.12213740458015267,0.33587786259541985,0.21374045801526717,4920,2,-4,0.449761927996548,40.919405582840206,-0.005256,False,,False,,,,,32
2175.779,1.4819859200001702,-0.864013671875,0.484375,-0.003662109375,0.030534351145038167,0.5190839694656488,0.0916030534351145,4921,7,-9,0.452233851824673,101.41251789822213,-0.011826,False,,False,,,,,32
2175.779,1.4839868180001758,-0.864013671875,0.484375,-0.003662109375,0.030534351145038167,0.5190839694656488,0.0916030534351145,4921,7,-9,0.452233851824673,101.41251789822213,-0.011826,False,,False,,,,,32
2175.779,1.4859884570000759,-0.864013671875,0.484375,-0.003662109375,0.030534351145038167,0.5190839694656488,0.0916030534351145,4921,7,-9,0.452233851824673,101.41251789822213,-0.011826,False,,False,,,,,32
2175.784,1.4879890219999652,-0.867431640625,0.48876953125,-0.003662109375,0.0,0.48854961832061067,0.061068702290076333,4918,-6,3,0.444818080340298,184.51753161842547,0.003942,False,,False,,,,,32
2175.784,1.4899898840003516,-0.867431640625,0.48876953125,-0.003662109375,0.0,0.48854961832061067,0.061068702290076333,4918,-6,3,0.444818080340298,184.51753161842547,0.003942,False,,False,,,,,32
2175.789,1.4919927450000614,-0.868896484375,0.487060546875,-0.003173828125,-0.061068702290076333,0.549618320610687,0.15267175572519084,4920,2,2,0.449761927996548,285.34710422186384,0.002628,False,,False,,,,,32
2175.789,1.4939932180000142,-0.868896484375,0.487060546875,-0.003173828125,-0.061068702290076333,0.549618320610687,0.15267175572519084,4920,2,2,0.449761927996548,285.34710422186384,0.002628,False,,False,,,,,32
2175.789,1.4959950420002315,-0.868896484375,0.487060546875,-0.003173828125,-0.061068702290076333,0.549618320610687,0.15267175572519084,4920,2,2,0.449761927996548,285.34710422186384,0.002628,False,,False,,,,,32
2175.794,1.4979986630000894,-0.865966796875,0.48681640625,-0.003662109375,-0.15267175572519084,0.5801526717557252,0.030534351145038167,4920,-1,1,0.449761927996548,399.5618239193686,0.001314,False,,False,,,,,32
2175.794,1.4999980430002324,-0.865966796875,0.48681640625,-0.003662109375,-0.15267175572519084,0.5801526717557252,0.030534351145038167,4920,-1,1,0.449761927996548,399.5618239193686,0.001314,False,,False,,,,,32
2175.799,1.5020009600002595,-0.8662109375,0.4892578125,-0.00244140625,-0.0916030534351145,0.6412213740458015,-0.061068702290076333,4920,0,2,0.449761927996548,523.3295363120822,0.002628,False,,False,,,,,32
2175.799,1.504001451000022,-0.8662109375,0.4892578125,-0.00244140625,-0.0916030534351145,0.6412213740458015,-0.061068702290076333,4920,0,2,0.449761927996548,523.3295363120822,0.002628,False,,False,,,,,32
2175.799,1.5060027380000065,-0.8662109375,0.4892578125,-0.00244140625,-0.0916030534351145,0.6412213740458015,-0.061068702290076333,4920,0,2,0.449761927996548,523.3295363120822,0.002628,False,,False,,,,,32
2175.804,1.5080050250003296,-0.866943359375,0.4892578125,-0.00439453125,-0.12213740458015267,0.549618320610687,-0.12213740458015267,4920,-3,-6,0.449761927996548,653.2982689502312,-0.007884,False,,False,,,,,32
2175.804,1.5100057940003353,-0.866943359375,0.4892578125,-0.00439453125,-0.12213740458015267,0.549618320610687,-0.12213740458015267,4920,-3,-6,0.449761927996548,653.2982689502312,-0.007884,False,,False,,,,,32
2175.809,1.5120067299999391,-0.864013671875,0.4921875,-0.00146484375,-0.21374045801526717,0.3969465648854962,0.0,4920,2,-1,0.449761927996548,786.5755605300973,-0.001314,False,,False,,,,,32
2175.809,1.5140146830003687,-0.864013671875,0.4921875,-0.00146484375,-0.21374045801526717,0.3969465648854962,0.0,4920,2,-1,0.449761927996548,786.5755605300973,-0.001314,False,,False,,,,,32
2175.809,1.5160142490003636,-0.864013671875,0.4921875,-0.00146484375,-0.21374045801526717,0.3969465648854962,0.0,4920,2,-1,0.449761927996548,786.5755605300973,-0.001314,False,,False,,,,,32
2175.814,1.5180171840002004,-0.8681640625,0.494384765625,-0.002685546875,-0.24427480916030533,0.33587786259541985,0.030534351145038167,4920,-5,0,0.449761927996548,920.6919653357414,0.0,False,,False,,,,,32
2175.814,1.5200196190003226,-0.8681640625,0.494384765625,-0.002685546875,-0.24427480916030533,0.33587786259541985,0.030534351145038167,4920,-5,0,0.449761927996548,920.6919653357414,0.0,False,,False,,,,,32
2175.819,1.5220209990002331,-0.86962890625,0.492431640625,-0.005615234375,-0.183206106870229,0.6412213740458015,0.030534351145038167,4920,0,0,0.449761927996548,1053.5679527215716,0.0,False,,False,,,,,32
2175.819,1.5240231760003553,-0.86962890625,0.492431640625,-0.005615234375,-0.183206106870229,0.6412213740458015,0.030534351145038167,4920,0,0,0.449761927996548,1053.5679527215716,0.0,False,,False,,,,,32
2175.819,1.5260253890000968,-0.86962890625,0.492431640625,-0.005615234375,-0.183206106870229,0.6412213740458015,0.030534351145038167,4920,0,0,0.449761927996548,1053.5679527215716,0.0,False,,False,,,,,32
2175.824,1.5280256760001976,-0.87060546875,0.49560546875,-0.005859375,-0.33587786259541985,0.2748091603053435,0.0,4920,-6,-5,0.449761927996548,1183.4805473736908,-0.0065699999999999995,False,,False,,,,,32
2175.824,1.5300250560003406,-0.87060546875,0.49560546875,-0.005859375,-0.33587786259541985,0.2748091603053435,0.0,4920,-6,-5,0.449761927996548,1183.4805473736908,-0.0065699999999999995,False,,False,,,,,32
2175.829,1.5320283800001562,-0.869140625,0.490478515625,-0.002197265625,-0.5190839694656488,0.3053435114503817,0.030534351145038167,4920,5,-4,0.449761927996548,1309.0302358324782,-0.005256,False,,False,,,,,32
2175.829,1.5340305940003418,-0.869140625,0.490478515625,-0.002197265625,-0.5190839694656488,0.3053435114503817,0.030534351145038167,4920,5,-4,0.449761927996548,1309.0302358324782,-0.005256,False,,False,,,,,32
2175.829,1.536032213999988,-0.869140625,0.490478515625,-0.002197265625,-0.5190839694656488,0.3053435114503817,0.030534351145038167,4920,5,-4,0.449761927996548,1309.0302358324782,-0.005256,False,,False,,,,,32
2175.834,1.5380332980003004,-0.8662109375,0.4912109375,-0.008056640625,-0.3053435114503817,0.24427480916030533,0.0,4920,0,-1,0.449761927996548,1429.1085753372436,-0.001314,False,,False,,,,,32
2175.834,1.5400320110002212,-0.8662109375,0.4912109375,-0.008056640625,-0.3053435114503817,0.24427480916030533,0.0,4920,0,-1,0.449761927996548,1429.1085753372436,-0.001314,False,,False,,,,,32
2175.839,1.5420377800001006,-0.86669921875,0.4921875,-0.004638671875,-0.33587786259541985,0.2748091603053435,0.030534351145038167,4920,-3,-1,0.449761927996548,1542.8668598807433,-0.001314,False,,False,,,,,32
2175.839,1.544036234000032,-0.86669921875,0.4921875,-0.004638671875,-0.33587786259541985,0.2748091603053435,0.030534351145038167,4920,-3,-1,0.449761927996548,1542.8668598807433,-0.001314,False,,False,,,,,32
2175.839,1.5460403360002601,-0.86669921875,0.4921875,-0.004638671875,-0.33587786259541985,0.2748091603053435,0.030534351145038167,4920,-3,-1,0.449761927996548,1542.8668598807433,-0.001314,False,,False,,,,,32
2175.844,1.548040420000234,-0.8681640625,0.490966796875,-0.007080078125,-0.33587786259541985,0.366412213740458,0.15267175572519084,4921,1,0,0.452233851824673,1649.6879157739324,0.0,False,,False,,,,,32
2175.844,1.5500431519999438,-0.8681640625,0.490966796875,-0.007080078125,-0.33587786259541985,0.366412213740458,0.15267175572519084,4921,1,0,0.452233851824673,1649.6879157739324,0.0,False,,False,,,,,32
2175.849,1.5520448090001082,-0.8662109375,0.4912109375,-0.004638671875,-0.24427480916030533,0.549618320610687,0.183206106870229,4921,-2,0,0.452233851824673,1749.1555542597755,0.0,False,,False,,,,,32
2175.849,1.5540467260002515,-0.8662109375,0.4912109375,-0.004638671875,-0.24427480916030533,0.549618320610687,0.183206106870229,4921,-2,0,0.452233851824673,1749.1555542597755,0.0,False,,False,,,,,32
2175.849,1.5560451620003732,-0.8662109375,0.4912109375,-0.004638671875,-0.24427480916030533,0.549618320610687,0.183206106870229,4921,-2,0,0.452233851824673,1749.1555542597755,0.0,False,,False,,,,,32
2175.8540000000003,1.5580524300003162,-0.865234375,0.490234375,-0.0068359375,-0.3969465648854962,0.183206106870229,0.12213740458015267,4921,1,0,0.452233851824673,1841.0242956834436,0.0,False,,False,,,,,32
2175.8540000000003,1.5600503470000149,-0.865234375,0.490234375,-0.0068359375,-0.3969465648854962,0.183206106870229,0.12213740458015267,4921,1,0,0.452233851824673,1841.0242956834436,0.0,False,,False,,,,,32
2175.859,1.5621350780002103,-0.870849609375,0.48583984375,-0.00439453125,-0.2748091603053435,0.42748091603053434,0.183206106870229,4921,2,-2,0.452233851824673,1925.1987121230247,-0.002628,False,,False,,,,,32
2175.859,1.5641352730003746,-0.870849609375,0.48583984375,-0.00439453125,-0.2748091603053435,0.42748091603053434,0.183206106870229,4921,2,-2,0.452233851824673,1925.1987121230247,-0.002628,False,,False,,,,,32
2175.859,1.5661381340000844,-0.870849609375,0.48583984375,-0.00439453125,-0.2748091603053435,0.42748091603053434,0.183206106870229,4921,2,-2,0.452233851824673,1925.1987121230247,-0.002628,False,,False,,,,,32
2175.864,1.5681392550000055,-0.86474609375,0.488525390625,-0.009765625,-0.21374045801526717,0.7633587786259541,0.0916030534351145,4921,-1,-4,0.452233851824673,2001.7121691557022,-0.005256,False,,False,,,,,32
2175.864,1.5701413199999479,-0.86474609375,0.488525390625,-0.009765625,-0.21374045801526717,0.7633587786259541,0.0916030534351145,4921,-1,-4,0.452233851824673,2001.7121691557022,-0.005256,False,,False,,,,,32
2175.869,1.572143385000345,-0.867919921875,0.48974609375,-0.005859375,-0.24427480916030533,0.7022900763358778,0.12213740458015267,4921,6,-1,0.452233851824673,2070.7035820492174,-0.001314,False,,False,,,,,32
2175.869,1.574143617000118,-0.867919921875,0.48974609375,-0.005859375,-0.24427480916030533,0.7022900763358778,0.12213740458015267,4921,6,-1,0.452233851824673,2070.7035820492174,-0.001314,False,,False,,,,,32
2175.869,1.576145552000071,-0.867919921875,0.48974609375,-0.005859375,-0.24427480916030533,0.7022900763358778,0.12213740458015267,4921,6,-1,0.452233851824673,2070.7035820492174,-0.001314,False,,False,,,,,32
2175.8740000000003,1.5781471730001613,-0.8681640625,0.490478515625,-0.005859375,-0.2748091603053435,0.9465648854961831,0.12213740458015267,4922,1,-4,0.454705775652798,2132.400008413823,-0.005256,False,,False,,,,,32
2175.8740000000003,1.58014544200023,-0.8681640625,0.490478515625,-0.005859375,-0.2748091603053435,0.9465648854961831,0.12213740458015267,4922,1,-4,0.454705775652798,2132.400008413823,-0.005256,False,,False,,,,,32
2175.879,1.5821500440001728,-0.86767578125,0.493896484375,-0.00439453125,-0.2748091603053435,0.9770992366412213,0.24427480916030533,4921,8,-4,0.452233851824673,2187.095426683429,-0.005256,False,,False,,,,,32
2175.879,1.5841513130003477,-0.86767578125,0.493896484375,-0.00439453125,-0.2748091603053435,0.9770992366412213,0.24427480916030533,4921,8,-4,0.452233851824673,2187.095426683429,-0.005256,False,,False,,,,,32
2175.879,1.5861536190000152,-0.86767578125,0.493896484375,-0.00439453125,-0.2748091603053435,0.9770992366412213,0.24427480916030533,4921,8,-4,0.452233851824673,2187.095426683429,-0.005256,False,,False,,,,,32
2175.884,1.5881549979999363,-0.86474609375,0.4921875,-0.00439453125,-0.2748091603053435,1.0381679389312977,0.33587786259541985,4922,5,-5,0.454705775652798,2235.135581391018,-0.0065699999999999995,False,,False,,,,,32
2175.884,1.5901563600000372,-0.86474609375,0.4921875,-0.00439453125,-0.2748091603053435,1.0381679389312977,0.33587786259541985,4922,5,-5,0.454705775652798,2235.135581391018,-0.0065699999999999995,False,,False,,,,,32
2175.889,1.5921568880003178,-0.864990234375,0.490478515625,-0.003173828125,-0.15267175572519084,0.9465648854961831,0.21374045801526717,4921,5,-9,0.452233851824673,2276.908126998326,-0.011826,False,,False,,,,,32
2175.889,1.5941597490000277,-0.864990234375,0.490478515625,-0.003173828125,-0.15267175572519084,0.9465648854961831,0.21374045801526717,4921,5,-9,0.452233851824673,2276.908126998326,-0.011826,False,,False,,,,,32
2175.889,1.5961618700002873,-0.864990234375,0.490478515625,-0.003173828125,-0.15267175572519084,0.9465648854961831,0.21374045801526717,4921,5,-9,0.452233851824673,2276.908126998326,-0.011826,False,,False,,,,,32
2175.8940000000002,1.598162787000092,-0.86181640625,0.492431640625,-0.00390625,-0.21374045801526717,0.8854961832061068,0.24427480916030533,4921,-2,-2,0.452233851824673,2312.8266073396658,-0.002628,False,,False,,,,,32
2175.8940000000002,1.600286628000049,-0.86181640625,0.492431640625,-0.00390625,-0.21374045801526717,0.8854961832061068,0.24427480916030533,4921,-2,-2,0.452233851824673,2312.8266073396658,-0.002628,False,,False,,,,,32
2175.899,1.6022877860000335,-0.86669921875,0.4951171875,-0.002197265625,0.061068702290076333,0.8244274809160305,0.15267175572519084,4921,-1,0,0.452233851824673,2343.3238304706665,0.0,False,,False,,,,,32
2175.899,1.6042879810001978,-0.86669921875,0.4951171875,-0.002197265625,0.061068702290076333,0.8244274809160305,0.15267175572519084,4921,-1,0,0.452233851824673,2343.3238304706665,0.0,False,,False,,,,,32
2175.899,1.606290786000045,-0.86669921875,0.4951171875,-0.002197265625,0.061068702290076333,0.8244274809160305,0.15267175572519084,4921,-1,0,0.452233851824673,2343.3238304706665,0.0,False,,False,,,,,32
2175.904,1.6082925740001883,-0.8642578125,0.4921875,-0.001708984375,-0.183206106870229,0.5190839694656488,0.21374045801526717,4921,-2,-1,0.452233851824673,2368.84246212629,-0.001314,False,,False,,,,,32
2175.904,1.610291046000384,-0.8642578125,0.4921875,-0.001708984375,-0.183206106870229,0.5190839694656488,0.21374045801526717,4921,-2,-1,0.452233851824673,2368.84246212629,-0.001314,False,,False,,,,,32
2175.909,1.6123033150001902,-0.864013671875,0.492431640625,-0.000732421875,-0.15267175572519084,0.6412213740458015,0.061068702290076333,4922,1,0,0.454705775652798,2389.825217426809,0.0,False,,False,,,,,32
2175.909,1.6142949909999516,-0.864013671875,0.492431640625,-0.000732421875,-0.15267175572519084,0.6412213740458015,0.061068702290076333,4922,1,0,0.454705775652798,2389.825217426809,0.0,False,,False,,,,,32
2175.909,1.6162985010000739,-0.864013671875,0.492431640625,-0.000732421875,-0.15267175572519084,0.6412213740458015,0.061068702290076333,4922,1,0,0.454705775652798,2389.825217426809,0.0,False,,False,,,,,32
2175.914,1.6182994920000056,-0.865966796875,0.49267578125,-0.002197265625,-0.030534351145038167,0.5190839694656488,0.12213740458015267,4920,-1,-1,0.449761927996548,2406.7048583375154,-0.001314,False,,False,,,,,32
2175.914,1.62029944599999,-0.865966796875,0.49267578125,-0.002197265625,-0.030534351145038167,0.5190839694656488,0.12213740458015267,4920,-1,-1,0.449761927996548,2406.7048583375154,-0.001314,False,,False,,,,,32
2175.919,1.622302344000218,-0.861328125,0.493408203125,-0.000732421875,-0.030534351145038167,0.24427480916030533,0.0916030534351145,4921,5,1,0.452233851824673,2419.9013354266426,0.001314,False,,False,,,,,32
2175.919,1.6243040200001815,-0.861328125,0.493408203125,-0.000732421875,-0.030534351145038167,0.24427480916030533,0.0916030534351145,4921,5,1,0.452233851824673,2419.9013354266426,0.001314,False,,False,,,,,32
2175.919,1.6263056970001344,-0.861328125,0.493408203125,-0.000732421875,-0.030534351145038167,0.24427480916030533,0.0916030534351145,4921,5,1,0.452233851824673,2419.9013354266426,0.001314,False,,False,,,,,32
2175.924,1.6283070210001824,-0.861083984375,0.49560546875,-0.000244140625,-0.12213740458015267,0.3053435114503817,0.183206106870229,4921,0,0,0.452233851824673,2429.826742606336,0.0,False,,False,,,,,32
2175.924,1.6303083450002305,-0.861083984375,0.49560546875,-0.000244140625,-0.12213740458015267,0.3053435114503817,0.183206106870229,4921,0,0,0.452233851824673,2429.826742606336,0.0,False,,False,,,,,32
2175.929,1.6323103180002363,-0.86572265625,0.495361328125,-0.00048828125,-0.061068702290076333,0.33587786259541985,0.0916030534351145,4922,2,-7,0.454705775652798,2436.8734644305946,-0.009198,False,,False,,,,,32
2175.929,1.634389826000188,-0.86572265625,0.495361328125,-0.00048828125,-0.061068702290076333,0.33587786259541985,0.0916030534351145,4922,2,-7,0.454705775652798,2436.8734644305946,-0.009198,False,,False,,,,,32
2175.929,1.6363927060001515,-0.86572265625,0.495361328125,-0.00048828125,-0.061068702290076333,0.33587786259541985,0.0916030534351145,4922,2,-7,0.454705775652798,2436.8734644305946,-0.009198,False,,False,,,,,32
2175.934,1.6383919190002416,-0.8623046875,0.492919921875,-0.001708984375,0.061068702290076333,0.15267175572519084,0.030534351145038167,4922,5,0,0.454705775652798,2441.4081197660844,0.0,False,,False,,,,,32
2175.934,1.6403957249999621,-0.8623046875,0.492919921875,-0.001708984375,0.061068702290076333,0.15267175572519084,0.030534351145038167,4922,5,0,0.454705775652798,2441.4081197660844,0.0,False,,False,,,,,32
2175.939,1.6424273460002041,-0.86181640625,0.489501953125,-0.0009765625,0.0916030534351145,0.366412213740458,0.0,4922,0,5,0.454705775652798,2443.7722363174257,0.0065699999999999995,False,,False,,,,,32
2175.939,1.6444252070000402,-0.86181640625,0.489501953125,-0.0009765625,0.0916030534351145,0.366412213740458,0.0,4922,0,5,0.454705775652798,2443.7722363174257,0.0065699999999999995,False,,False,,,,,32
2175.939,1.646429050000279,-0.86181640625,0.489501953125,-0.0009765625,0.0916030534351145,0.366412213740458,0.0,4922,0,5,0.454705775652798,2443.7722363174257,0.0065699999999999995,False,,False,,,,,32
2175.944,1.6484310220002953,-0.863525390625,0.494384765625,-0.00390625,0.12213740458015267,0.21374045801526717,-0.061068702290076333,4921,3,0,0.452233851824673,2444.2813883089248,0.0,False,,False,,,,,32
2175.944,1.6504300320002585,-0.863525390625,0.494384765625,-0.00390625,0.12213740458015267,0.21374045801526717,-0.061068702290076333,4921,3,0,0.452233851824673,2444.2813883089248,0.0,False,,False,,,,,32
2175.949,1.6524346900000637,-0.86181640625,0.489013671875,-0.002685546875,0.21374045801526717,0.3969465648854962,0.061068702290076333,4922,-3,1,0.454705775652798,2443.2302220609977,0.001314,False,,False,,,,,32
2175.949,1.65443303200027,-0.86181640625,0.489013671875,-0.002685546875,0.21374045801526717,0.3969465648854962,0.061068702290076333,4922,-3,1,0.454705775652798,2443.2302220609977,0.001314,False,,False,,,,,32
2175.949,1.6564376350002021,-0.86181640625,0.489013671875,-0.002685546875,0.21374045801526717,0.3969465648854962,0.061068702290076333,4922,-3,1,0.454705775652798,2443.2302220609977,0.001314,False,,False,,,,,32
2175.954,1.6584368110002288,-0.8671875,0.489990234375,-0.00537109375,0.061068702290076333,0.3053435114503817,0.0,4922,3,0,0.454705775652798,2440.891594977943,0.0,False,,False,,,,,32
2175.954,1.6604550790002577,-0.8671875,0.489990234375,-0.00537109375,0.061068702290076333,0.3053435114503817,0.0,4922,3,0,0.454705775652798,2440.891594977943,0.0,False,,False,,,,,32
2175.959,1.662455107000369,-0.866455078125,0.49169921875,-0.00048828125,0.183206106870229,0.21374045801526717,0.0,4922,-8,-3,0.454705775652798,2437.509008357688,-0.003942,False,,False,,,,,32
2175.959,1.6644577100000788,-0.866455078125,0.49169921875,-0.00048828125,0.183206106870229,0.21374045801526717,0.0,4922,-8,-3,0.454705775652798,2437.509008357688,-0.003942,False,,False,,,,,32
2175.959,1.6664597560002221,-0.866455078125,0.49169921875,-0.00048828125,0.183206106870229,0.21374045801526717,0.0,4922,-8,-3,0.454705775652798,2437.509008357688,-0.003942,False,,False,,,,,32
2175.964,1.6685385420000785,-0.865966796875,0.4853515625,-0.002197265625,0.183206106870229,0.33587786259541985,0.0916030534351145,4923,4,-2,0.457177699480923,2433.3014405747476,-0.002628,False,,False,,,,,32
2175.964,1.6705405150000843,-0.865966796875,0.4853515625,-0.002197265625,0.183206106870229,0.33587786259541985,0.0916030534351145,4923,4,-2,0.457177699480923,2433.3014405747476,-0.002628,False,,False,,,,,32
2175.969,1.6725412650002909,-0.86572265625,0.488525390625,-0.001953125,0.183206106870229,0.42748091603053434,-0.12213740458015267,4922,-3,-4,0.454705775652798,2428.4641675808525,-0.005256,False,,False,,,,,32
2175.969,1.6746096440001565,-0.86572265625,0.488525390625,-0.001953125,0.183206106870229,0.42748091603053434,-0.12213740458015267,4922,-3,-4,0.454705775652798,2428.4641675808525,-0.005256,False,,False,,,,,32
2175.974,1.676852947000043,-0.8662109375,0.490234375,-0.0048828125,0.12213740458015267,0.2748091603053435,-0.0916030534351145,4922,0,-2,0.454705775652798,2423.1662121782792,-0.002628,False,,False,,,,,32
2175.974,1.6788488639999741,-0.8662109375,0.490234375,-0.0048828125,0.12213740458015267,0.2748091603053435,-0.0916030534351145,4922,0,-2,0.454705775652798,2423.1662121782792,-0.002628,False,,False,,,,,32
2175.974,1.6808531880001283,-0.8662109375,0.490234375,-0.0048828125,0.12213740458015267,0.2748091603053435,-0.0916030534351145,4922,0,-2,0.454705775652798,2423.1662121782792,-0.002628,False,,False,,,,,32
2175.9790000000003,1.6828538090003349,-0.866943359375,0.489501953125,-0.0029296875,0.12213740458015267,0.366412213740458,0.061068702290076333,4921,-3,-3,0.452233851824673,2417.557541440531,-0.003942,False,,False,,,,,32
2175.9790000000003,1.6848546330002137,-0.866943359375,0.489501953125,-0.0029296875,0.12213740458015267,0.366412213740458,0.061068702290076333,4921,-3,-3,0.452233851824673,2417.557541440531,-0.003942,False,,False,,,,,32
2175.984,1.6868573460001244,-0.869140625,0.4912109375,-0.0029296875,0.2748091603053435,0.5801526717557252,0.0916030534351145,4921,-1,-8,0.452233851824673,2411.7699968027187,-0.010512,False,,False,,,,,32
2175.984,1.6888588370002253,-0.869140625,0.4912109375,-0.0029296875,0.2748091603053435,0.5801526717557252,0.0916030534351145,4921,-1,-8,0.452233851824673,2411.7699968027187,-0.010512,False,,False,,,,,32
2175.984,1.690862699000263,-0.869140625,0.4912109375,-0.0029296875,0.2748091603053435,0.5801526717557252,0.0916030534351145,4921,-1,-8,0.452233851824673,2411.7699968027187,-0.010512,False,,False,,,,,32
2175.989,1.6928642820003006,-0.864501953125,0.488037109375,-0.002685546875,0.183206106870229,0.33587786259541985,0.0,4922,-2,0,0.454705775652798,2405.9201258007156,0.0,False,,False,,,,,32
2175.989,1.694868088000021,-0.864501953125,0.488037109375,-0.002685546875,0.183206106870229,0.33587786259541985,0.0,4922,-2,0,0.454705775652798,2405.9201258007156,0.0,False,,False,,,,,32
2175.994,1.6968699500002913,-0.866943359375,0.489990234375,-0.0009765625,0.12213740458015267,0.2748091603053435,-0.030534351145038167,4922,6,3,0.454705775652798,2400.106402796476,0.003942,False,,False,,,,,32
2175.994,1.6988689039999372,-0.866943359375,0.489990234375,-0.0009765625,0.12213740458015267,0.2748091603053435,-0.030534351145038167,4922,6,3,0.454705775652798,2400.106402796476,0.003942,False,,False,,,,,32
2175.994,1.700874080000176,-0.866943359375,0.489990234375,-0.0009765625,0.12213740458015267,0.2748091603053435,-0.030534351145038167,4922,6,3,0.454705775652798,2400.106402796476,0.003942,False,,False,,,,,32
2175.9990000000003,1.7028734780001287,-0.86572265625,0.488525390625,-0.000732421875,0.366412213740458,0.3969465648854962,0.061068702290076333,4922,0,-1,0.454705775652798,2394.405373540303,-0.001314,False,,False,,,,,32
2175.9990000000003,1.7048759880003672,-0.86572265625,0.488525390625,-0.000732421875,0.366412213740458,0.3969465648854962,0.061068702290076333,4922,0,-1,0.454705775652798,2394.405373540303,-0.001314,False,,False,,,,,32
2176.004,1.7070063660003143,-0.86767578125,0.48974609375,-0.003662109375,0.21374045801526717,0.33587786259541985,-0.030534351145038167,4922,3,1,0.454705775652798,2388.8794881679214,0.001314,False,,False,,,,,32
2176.004,1.7090079310000874,-0.86767578125,0.48974609375,-0.003662109375,0.21374045801526717,0.33587786259541985,-0.030534351145038167,4922,3,1,0.454705775652798,2388.8794881679214,0.001314,False,,False,,,,,32
2176.004,1.7110084959999767,-0.86767578125,0.48974609375,-0.003662109375,0.21374045801526717,0.33587786259541985,-0.030534351145038167,4922,3,1,0.454705775652798,2388.8794881679214,0.001314,False,,False,,,,,32
2176.009,1.7130093210002997,-0.864013671875,0.488525390625,-0.00341796875,0.24427480916030533,0.3053435114503817,0.061068702290076333,4923,6,-7,0.457177699480923,2383.5820725339454,-0.009198,False,,False,,,,,32
2176.009,1.7150089970000408,-0.864013671875,0.488525390625,-0.00341796875,0.24427480916030533,0.3053435114503817,0.061068702290076333,4923,6,-7,0.457177699480923,2383.5820725339454,-0.009198,False,,False,,,,,32
2176.014,1.7171217830000387,-0.865234375,0.4921875,0.00244140625,0.030534351145038167,0.21374045801526717,-0.0916030534351145,4921,-1,-8,0.452233851824673,2378.550879277005,-0.010512,False,,False,,,,,32
2176.014,1.7191221810003299,-0.865234375,0.4921875,0.00244140625,0.030534351145038167,0.21374045801526717,-0.0916030534351145,4921,-1,-8,0.452233851824673,2378.550879277005,-0.010512,False,,False,,,,,32
2176.014,1.721125468000082,-0.865234375,0.4921875,0.00244140625,0.030534351145038167,0.21374045801526717,-0.0916030534351145,4921,-1,-8,0.452233851824673,2378.550879277005,-0.010512,False,,False,,,,,32
2176.0190000000002,1.7231262000000243,-0.8681640625,0.49072265625,-0.00439453125,0.0916030534351145,0.15267175572519084,-0.030534351145038167,4922,0,-9,0.454705775652798,2373.8118670186345,-0.011826,False,,False,,,,,32
2176.0190000000002,1.7251274320001357,-0.8681640625,0.49072265625,-0.00439453125,0.0916030534351145,0.15267175572519084,-0.030534351145038167,4922,0,-9,0.454705775652798,2373.8118670186345,-0.011826,False,,False,,,,,32
2176.024,1.7271293670000887,-0.868408203125,0.486083984375,-0.002197265625,-0.030534351145038167,0.24427480916030533,-0.0916030534351145,4923,2,-3,0.457177699480923,2369.3914876167655,-0.003942,False,,False,,,,,32
2176.024,1.729130895000253,-0.868408203125,0.486083984375,-0.002197265625,-0.030534351145038167,0.24427480916030533,-0.0916030534351145,4923,2,-3,0.457177699480923,2369.3914876167655,-0.003942,False,,False,,,,,32
2176.024,1.731131219999952,-0.868408203125,0.486083984375,-0.002197265625,-0.030534351145038167,0.24427480916030533,-0.0916030534351145,4923,2,-3,0.457177699480923,2369.3914876167655,-0.003942,False,,False,,,,,32
2176.029,1.7331337660002646,-0.8701171875,0.4892578125,-0.0009765625,0.0916030534351145,0.0916030534351145,-0.030534351145038167,4924,6,-2,0.459649623309048,2365.307270134594,-0.002628,False,,False,,,,,32
2176.029,1.735134349999953,-0.8701171875,0.4892578125,-0.0009765625,0.0916030534351145,0.0916030534351145,-0.030534351145038167,4924,6,-2,0.459649623309048,2365.307270134594,-0.002628,False,,False,,,,,32
2176.034,1.7371365450003395,-0.86865234375,0.488525390625,-0.0048828125,0.061068702290076333,0.24427480916030533,0.030534351145038167,4921,-7,-1,0.452233851824673,2361.5564861658377,-0.001314,False,,False,,,,,32
2176.034,1.7391382020000492,-0.86865234375,0.488525390625,-0.0048828125,0.061068702290076333,0.24427480916030533,0.030534351145038167,4921,-7,-1,0.452233851824673,2361.5564861658377,-0.001314,False,,False,,,,,32
2176.034,1.741140564000034,-0.86865234375,0.488525390625,-0.0048828125,0.061068702290076333,0.24427480916030533,0.030534351145038167,4921,-7,-1,0.452233851824673,2361.5564861658377,-0.001314,False,,False,,,,,32
2176.039,1.7431424440001138,-0.86572265625,0.4931640625,-0.00732421875,0.061068702290076333,0.33587786259541985,-0.12213740458015267,4922,-3,3,0.454705775652798,2358.132021178851,0.003942,False,,False,,,,,32
2176.039,1.7451400830000239,-0.86572265625,0.4931640625,-0.00732421875,0.061068702290076333,0.33587786259541985,-0.12213740458015267,4922,-3,3,0.454705775652798,2358.132021178851,0.003942,False,,False,,,,,32
2176.044,1.7471506660003797,-0.8671875,0.49072265625,-0.004638671875,-0.030534351145038167,0.21374045801526717,-0.15267175572519084,4922,-2,-1,0.454705775652798,2355.0357252552985,-0.001314,False,,False,,,,,32
2176.044,1.7491503979999834,-0.8671875,0.49072265625,-0.004638671875,-0.030534351145038167,0.21374045801526717,-0.15267175572519084,4922,-2,-1,0.454705775652798,2355.0357252552985,-0.001314,False,,False,,,,,32
2176.044,1.7511503340001582,-0.8671875,0.49072265625,-0.004638671875,-0.030534351145038167,0.21374045801526717,-0.15267175572519084,4922,-2,-1,0.454705775652798,2355.0357252552985,-0.001314,False,,False,,,,,32
2176.049,1.753153268999995,-0.8662109375,0.49560546875,-0.005859375,0.061068702290076333,0.21374045801526717,-0.0916030534351145,4922,-1,-3,0.454705775652798,2352.262602650112,-0.003942,False,,False,,,,,32
2176.049,1.7551531680001062,-0.8662109375,0.49560546875,-0.005859375,0.061068702290076333,0.21374045801526717,-0.0916030534351145,4922,-1,-3,0.454705775652798,2352.262602650112,-0.003942,False,,False,,,,,32
2176.054,1.7571566589999748,-0.86669921875,0.490966796875,-0.00390625,-0.0916030534351145,0.3969465648854962,-0.030534351145038167,4922,0,0,0.454705775652798,2349.79841777981,0.0,False,,False,,,,,32
2176.054,1.7591598160001922,-0.86669921875,0.490966796875,-0.00390625,-0.0916030534351145,0.3969465648854962,-0.030534351145038167,4922,0,0,0.454705775652798,2349.79841777981,0.0,False,,False,,,,,32
2176.054,1.7611585300001025,-0.86669921875,0.490966796875,-0.00390625,-0.0916030534351145,0.3969465648854962,-0.030534351145038167,4922,0,0,0.454705775652798,2349.79841777981,0.0,False,,False,,,,,32
2176.059,1.763161835000119,-0.8642578125,0.4931640625,-0.0078125,-0.061068702290076333,0.5801526717557252,-0.030534351145038167,4923,0,0,0.457177699480923,2347.6303583871054,0.0,False,,False,,,,,32
2176.059,1.7651614000001246,-0.8642578125,0.4931640625,-0.0078125,-0.061068702290076333,0.5801526717557252,-0.030534351145038167,4923,0,0,0.457177699480923,2347.6303583871054,0.0,False,,False,,,,,32
2176.064,1.7671657250002681,-0.869873046875,0.492919921875,-0.001220703125,0.0,0.366412213740458,-0.030534351145038167,4923,2,0,0.457177699480923,2345.743408398158,0.0,False,,False,,,,,32
2176.064,1.769166178999967,-0.869873046875,0.492919921875,-0.001220703125,0.0,0.366412213740458,-0.030534351145038167,4923,2,0,0.457177699480923,2345.743408398158,0.0,False,,False,,,,,32
2176.064,1.7711665400001948,-0.869873046875,0.492919921875,-0.001220703125,0.0,0.366412213740458,-0.030534351145038167,4923,2,0,0.457177699480923,2345.743408398158,0.0,False,,False,,,,,32
2176.069,1.7731696420000844,-0.86572265625,0.493896484375,-0.00634765625,0.030534351145038167,0.2748091603053435,-0.030534351145038167,4922,1,2,0.454705775652798,2344.1155527640467,0.002628,False,,False,,,,,32
2176.069,1.775167485000111,-0.86572265625,0.493896484375,-0.00634765625,0.030534351145038167,0.2748091603053435,-0.030534351145038167,4922,1,2,0.454705775652798,2344.1155527640467,0.002628,False,,False,,,,,32
2176.074,1.7771724020003603,-0.866455078125,0.48779296875,-0.00341796875,0.061068702290076333,0.33587786259541985,0.030534351145038167,4923,-1,2,0.457177699480923,2342.726397963446,0.002628,False,,False,,,,,32
2176.074,1.7791742270001123,-0.866455078125,0.48779296875,-0.00341796875,0.061068702290076333,0.33587786259541985,0.030534351145038167,4923,-1,2,0.457177699480923,2342.726397963446,0.002628,False,,False,,,,,32
2176.074,1.781172699000308,-0.866455078125,0.48779296875,-0.00341796875,0.061068702290076333,0.33587786259541985,0.030534351145038167,4923,-1,2,0.457177699480923,2342.726397963446,0.002628,False,,False,,,,,32
2176.079,1.7831776900002296,-0.8671875,0.4921875,-0.004150390625,-0.030534351145038167,0.2748091603053435,0.12213740458015267,4922,-5,3,0.454705775652798,2341.558993929246,0.003942,False,,False,,,,,32
2176.079,1.785177589000341,-0.8671875,0.4921875,-0.004150390625,-0.030534351145038167,0.2748091603053435,0.12213740458015267,4922,-5,3,0.454705775652798,2341.558993929246,0.003942,False,,False,,,,,32
2176.084,1.787179597999966,-0.865234375,0.489501953125,-0.004638671875,-0.0916030534351145,0.3969465648854962,0.0916030534351145,4921,-3,1,0.452233851824673,2340.5905664227107,0.001314,False,,False,,,,,32
2176.084,1.7891831260003528,-0.865234375,0.489501953125,-0.004638671875,-0.0916030534351145,0.3969465648854962,0.0916030534351145,4921,-3,1,0.452233851824673,2340.5905664227107,0.001314,False,,False,,,,,32
2176.084,1.7911812649999774,-0.865234375,0.489501953125,-0.004638671875,-0.0916030534351145,0.3969465648854962,0.0916030534351145,4921,-3,1,0.452233851824673,2340.5905664227107,0.001314,False,,False,,,,,32
2176.089,1.7932472740003504,-0.8642578125,0.487548828125,-0.005615234375,0.030534351145038167,0.33587786259541985,0.030534351145038167,4922,-4,0,0.454705775652798,2339.802747758935,0.0,False,,False,,,,,32
2176.089,1.7952458950003347,-0.8642578125,0.487548828125,-0.005615234375,0.030534351145038167,0.33587786259541985,0.030534351145038167,4922,-4,0,0.454705775652798,2339.802747758935,0.0,False,,False,,,,,32
2176.094,1.7972504970002774,-0.863525390625,0.48828125,-0.0068359375,-0.061068702290076333,0.0916030534351145,0.183206106870229,4922,0,0,0.454705775652798,2339.182915929268,0.0,False,,False,,,,,32
2176.094,1.799252099000114,-0.863525390625,0.48828125,-0.0068359375,-0.061068702290076333,0.0916030534351145,0.183206106870229,4922,0,0,0.454705775652798,2339.182915929268,0.0,False,,False,,,,,32
2176.094,1.8012513490002675,-0.863525390625,0.48828125,-0.0068359375,-0.061068702290076333,0.0916030534351145,0.183206106870229,4922,0,0,0.454705775652798,2339.182915929268,0.0,False,,False,,,,,32
2176.099,1.8032542109999667,-0.86181640625,0.487548828125,-0.00537109375,0.0,0.366412213740458,0.183206106870229,4924,2,-5,0.459649623309048,2338.7162799362504,-0.0065699999999999995,False,,False,,,,,32
2176.099,1.805253128000004,-0.86181640625,0.487548828125,-0.00537109375,0.0,0.366412213740458,0.183206106870229,4924,2,-5,0.459649623309048,2338.7162799362504,-0.0065699999999999995,False,,False,,,,,32
2176.1040000000003,1.8072572670002955,-0.864013671875,0.484619140625,-0.00830078125,-0.12213740458015267,0.21374045801526717,0.0,4923,0,5,0.457177699480923,2338.384656714526,0.0065699999999999995,False,,False,,,,,32
2176.1040000000003,1.809258869000132,-0.864013671875,0.484619140625,-0.00830078125,-0.12213740458015267,0.21374045801526717,0.0,4923,0,5,0.457177699480923,2338.384656714526,0.0065699999999999995,False,,False,,,,,32
2176.1040000000003,1.811262027000339,-0.864013671875,0.484619140625,-0.00830078125,-0.12213740458015267,0.21374045801526717,0.0,4923,0,5,0.457177699480923,2338.384656714526,0.0065699999999999995,False,,False,,,,,32
2176.109,1.813263666000239,-0.8662109375,0.488037109375,-0.005615234375,-0.12213740458015267,0.3969465648854962,0.15267175572519084,4923,0,3,0.457177699480923,2338.165496330652,0.003942,False,,False,,,,,32
2176.109,1.8152615640001386,-0.8662109375,0.488037109375,-0.005615234375,-0.12213740458015267,0.3969465648854962,0.15267175572519084,4923,0,3,0.457177699480923,2338.165496330652,0.003942,False,,False,,,,,32
2176.114,1.8172658700000284,-0.8662109375,0.48583984375,-0.005126953125,-0.0916030534351145,0.366412213740458,0.21374045801526717,4922,-7,-5,0.454705775652798,2338.0400816799556,-0.0065699999999999995,False,,False,,,,,32
2176.114,1.8192655460002243,-0.8662109375,0.48583984375,-0.005126953125,-0.0916030534351145,0.366412213740458,0.21374045801526717,4922,-7,-5,0.454705775652798,2338.0400816799556,-0.0065699999999999995,False,,False,,,,,32
2176.114,1.8212669080003252,-0.8662109375,0.48583984375,-0.005126953125,-0.0916030534351145,0.366412213740458,0.21374045801526717,4922,-7,-5,0.454705775652798,2338.0400816799556,-0.0065699999999999995,False,,False,,,,,32
2176.119,1.823269621000236,-0.86669921875,0.484130859375,-0.0068359375,-0.21374045801526717,0.2748091603053435,0.24427480916030533,4922,4,1,0.454705775652798,2337.9949660838765,0.001314,False,,False,,,,,32
2176.119,1.8252726300001996,-0.86669921875,0.484130859375,-0.0068359375,-0.21374045801526717,0.2748091603053435,0.24427480916030533,4922,4,1,0.454705775652798,2337.9949660838765,0.001314,False,,False,,,,,32
2176.1240000000003,1.8272737700003745,-0.8642578125,0.478515625,-0.00830078125,-0.366412213740458,-0.15267175572519084,0.366412213740458,4923,0,-3,0.457177699480923,2338.02130996778,-0.003942,False,,False,,,,,32
2176.1240000000003,1.8292769090003276,-0.8642578125,0.478515625,-0.00830078125,-0.366412213740458,-0.15267175572519084,0.366412213740458,4923,0,-3,0.457177699480923,2338.02130996778,-0.003942,False,,False,,,,,32
2176.1240000000003,1.831273992000206,-0.8642578125,0.478515625,-0.00830078125,-0.366412213740458,-0.15267175572519084,0.366412213740458,4923,0,-3,0.457177699480923,2338.02130996778,-0.003942,False,,False,,,,,32
2176.129,1.8332786870000746,-0.86376953125,0.4736328125,-0.01171875,-0.6412213740458015,-0.15267175572519084,-0.061068702290076333,4923,5,-3,0.457177699480923,2338.11067778961,-0.003942,False,,False,,,,,32
2176.129,1.835278808000112,-0.86376953125,0.4736328125,-0.01171875,-0.6412213740458015,-0.15267175572519084,-0.061068702290076333,4923,5,-3,0.457177699480923,2338.11067778961,-0.003942,False,,False,,,,,32
2176.134,1.8372807250002552,-0.8642578125,0.480712890625,-0.010009765625,-0.6106870229007634,0.6717557251908397,-0.3969465648854962,4922,-3,0,0.454705775652798,2338.247932441145,0.0,False,,False,,,,,32
2176.134,1.8392816049999965,-0.8642578125,0.480712890625,-0.010009765625,-0.6106870229007634,0.6717557251908397,-0.3969465648854962,4922,-3,0,0.454705775652798,2338.247932441145,0.0,False,,False,,,,,32
2176.134,1.8412820960002136,-0.8642578125,0.480712890625,-0.010009765625,-0.6106870229007634,0.6717557251908397,-0.3969465648854962,4922,-3,0,0.454705775652798,2338.247932441145,0.0,False,,False,,,,,32
2176.139,1.8432848460001878,-0.865234375,0.48388671875,-0.0078125,-0.48854961832061067,1.1603053435114503,-0.42748091603053434,4923,-1,-2,0.457177699480923,2338.4214981923715,-0.002628,False,,False,,,,,32
2176.139,1.8452841700000135,-0.865234375,0.48388671875,-0.0078125,-0.48854961832061067,1.1603053435114503,-0.42748091603053434,4923,-1,-2,0.457177699480923,2338.4214981923715,-0.002628,False,,False,,,,,32
2176.1440000000002,1.8472884950001571,-0.85986328125,0.50634765625,0.003173828125,0.21374045801526717,1.3435114503816794,-0.7022900763358778,4923,-4,-4,0.457177699480923,2338.626529538067,-0.005256,False,,False,,,,,32
2176.1440000000002,1.8492892630001734,-0.85986328125,0.50634765625,0.003173828125,0.21374045801526717,1.3435114503816794,-0.7022900763358778,4923,-4,-4,0.457177699480923,2338.626529538067,-0.005256,False,,False,,,,,32
2176.1440000000002,1.8512912539999888,-0.85986328125,0.50634765625,0.003173828125,0.21374045801526717,1.3435114503816794,-0.7022900763358778,4923,-4,-4,0.457177699480923,2338.626529538067,-0.005256,False,,False,,,,,32
2176.149,1.8532937640002274,-0.860107421875,0.5068359375,0.00537109375,0.42748091603053434,1.3740458015267174,-0.48854961832061067,4925,3,0,0.462121547137173,2338.8585140782643,0.0,False,,False,,,,,32
2176.149,1.8552929960001165,-0.860107421875,0.5068359375,0.00537109375,0.42748091603053434,1.3740458015267174,-0.48854961832061067,4925,3,0,0.462121547137173,2338.8585140782643,0.0,False,,False,,,,,32
2176.154,1.8572974130001967,-0.862548828125,0.4990234375,0.0078125,0.5801526717557252,0.183206106870229,0.030534351145038167,4923,-1,-1,0.457177699480923,2339.107912138463,-0.001314,False,,False,,,,,32
2176.154,1.85929631099998,-0.862548828125,0.4990234375,0.0078125,0.5801526717557252,0.183206106870229,0.030534351145038167,4923,-1,-1,0.457177699480923,2339.107912138463,-0.001314,False,,False,,,,,32
2176.154,1.8612973210001655,-0.862548828125,0.4990234375,0.0078125,0.5801526717557252,0.183206106870229,0.030534351145038167,4923,-1,-1,0.457177699480923,2339.107912138463,-0.001314,False,,False,,,,,32
2176.159,1.863301201000013,-0.865478515625,0.489990234375,0.004638671875,0.33587786259541985,-0.8244274809160305,0.3053435114503817,4924,1,-3,0.459649623309048,2339.36290400344,-0.003942,False,,False,,,,,32
2176.159,1.8652996730002087,-0.865478515625,0.489990234375,0.004638671875,0.33587786259541985,-0.8244274809160305,0.3053435114503817,4924,1,-3,0.459649623309048,2339.36290400344,-0.003942,False,,False,,,,,32
2176.164,1.8673039980003523,-0.870361328125,0.480712890625,0.001220703125,-0.33587786259541985,-0.7633587786259541,0.2748091603053435,4924,4,-4,0.459649623309048,2339.6206754052373,-0.005256,False,,False,,,,,32
2176.164,1.8693053770002734,-0.870361328125,0.480712890625,0.001220703125,-0.33587786259541985,-0.7633587786259541,0.2748091603053435,4924,4,-4,0.459649623309048,2339.6206754052373,-0.005256,False,,False,,,,,32
2176.164,1.8713041830001202,-0.870361328125,0.480712890625,0.001220703125,-0.33587786259541985,-0.7633587786259541,0.2748091603053435,4924,4,-4,0.459649623309048,2339.6206754052373,-0.005256,False,,False,,,,,32
2176.169,1.873308581999936,-0.8681640625,0.48046875,-0.005615234375,-0.5801526717557252,-0.6106870229007634,0.24427480916030533,4925,-7,0,0.462121547137173,2339.880620529682,0.0,False,,False,,,,,32
2176.169,1.8753087580003012,-0.8681640625,0.48046875,-0.005615234375,-0.5801526717557252,-0.6106870229007634,0.24427480916030533,4925,-7,0,0.462121547137173,2339.880620529682,0.0,False,,False,,,,,32
2176.174,1.8773102680002012,-0.869140625,0.48388671875,-0.007568359375,-0.6717557251908397,-0.2748091603053435,0.15267175572519084,4924,0,3,0.459649623309048,2340.136829197638,0.003942,False,,False,,,,,32
2176.174,1.8793133880003552,-0.869140625,0.48388671875,-0.007568359375,-0.6717557251908397,-0.2748091603053435,0.15267175572519084,4924,0,3,0.459649623309048,2340.136829197638,0.003942,False,,False,,,,,32
2176.174,1.8813124719999905,-0.869140625,0.48388671875,-0.007568359375,-0.6717557251908397,-0.2748091603053435,0.15267175572519084,4924,0,3,0.459649623309048,2340.136829197638,0.003942,False,,False,,,,,32
2176.179,1.8833167220000178,-0.866455078125,0.490478515625,-0.0087890625,-0.7633587786259541,-0.6717557251908397,0.21374045801526717,4924,-1,2,0.459649623309048,2340.3826171388882,0.002628,False,,False,,,,,32
2176.179,1.8853183800001716,-0.866455078125,0.490478515625,-0.0087890625,-0.7633587786259541,-0.6717557251908397,0.21374045801526717,4924,-1,2,0.459649623309048,2340.3826171388882,0.002628,False,,False,,,,,32
2176.184,1.887323760000072,-0.872802734375,0.489990234375,-0.008544921875,-0.33587786259541985,0.030534351145038167,0.12213740458015267,4924,7,2,0.459649623309048,2340.616120375603,0.002628,False,,False,,,,,32
2176.184,1.8893227140001727,-0.872802734375,0.489990234375,-0.008544921875,-0.33587786259541985,0.030534351145038167,0.12213740458015267,4924,7,2,0.459649623309048,2340.616120375603,0.002628,False,,False,,,,,32
2176.184,1.8913222230003157,-0.872802734375,0.489990234375,-0.008544921875,-0.33587786259541985,0.030534351145038167,0.12213740458015267,4924,7,2,0.459649623309048,2340.616120375603,0.002628,False,,False,,,,,32
2176.189,1.8933260660000997,-0.8701171875,0.48828125,-0.00830078125,-0.24427480916030533,0.030534351145038167,0.12213740458015267,4925,5,-3,0.462121547137173,2340.8395373947696,-0.003942,False,,False,,,,,32
2176.189,1.8953243350001685,-0.8701171875,0.48828125,-0.00830078125,-0.24427480916030533,0.030534351145038167,0.12213740458015267,4925,5,-3,0.462121547137173,2340.8395373947696,-0.003942,False,,False,,,,,32
2176.194,1.8973286410000583,-0.870361328125,0.4912109375,-0.00634765625,-0.3053435114503817,0.0916030534351145,0.15267175572519084,4925,2,-1,0.462121547137173,2341.0530643414604,-0.001314,False,,False,,,,,32
2176.194,1.8993281870002647,-0.870361328125,0.4912109375,-0.00634765625,-0.3053435114503817,0.0916030534351145,0.15267175572519084,4925,2,-1,0.462121547137173,2341.0530643414604,-0.001314,False,,False,,,,,32
2176.194,1.9013304009999956,-0.870361328125,0.4912109375,-0.00634765625,-0.3053435114503817,0.0916030534351145,0.15267175572519084,4925,2,-1,0.462121547137173,2341.0530643414604,-0.001314,False,,False,,,,,32
2176.199,1.9033331690002342,-0.8671875,0.494384765625,-0.0078125,-0.183206106870229,0.33587786259541985,-0.030534351145038167,4924,4,0,0.459649623309048,2341.2516371854554,0.0,False,,False,,,,,32
2176.199,1.905334086000039,-0.8671875,0.494384765625,-0.0078125,-0.183206106870229,0.33587786259541985,-0.030534351145038167,4924,4,0,0.459649623309048,2341.2516371854554,0.0,False,,False,,,,,32
2176.204,1.9073363180000342,-0.87109375,0.494140625,-0.00537109375,-0.061068702290076333,0.366412213740458,0.21374045801526717,4924,1,-2,0.459649623309048,2341.431233049563,-0.002628,False,,False,,,,,32
2176.209,1.9134746780000569,-0.868408203125,0.49267578125,-0.00390625,-0.15267175572519084,0.366412213740458,0.12213740458015267,4924,-2,-2,0.459649623309048,2341.594130483167,-0.002628,False,,False,,,,,32
2176.209,1.915461021000283,-0.868408203125,0.49267578125,-0.00390625,-0.15267175572519084,0.366412213740458,0.12213740458015267,4924,-2,-2,0.459649623309048,2341.594130483167,-0.002628,False,,False,,,,,32
2176.214,1.9174650120003207,-0.871337890625,0.49169921875,-0.00439453125,-0.183206106870229,0.3969465648854962,0.24427480916030533,4923,-4,2,0.457177699480923,2341.740688447424,0.002628,False,,False,,,,,32
2176.214,1.9194690220001576,-0.871337890625,0.49169921875,-0.00439453125,-0.183206106870229,0.3969465648854962,0.24427480916030533,4923,-4,2,0.457177699480923,2341.740688447424,0.002628,False,,False,,,,,32
2176.214,1.9214660500001628,-0.871337890625,0.49169921875,-0.00439453125,-0.183206106870229,0.3969465648854962,0.24427480916030533,4923,-4,2,0.457177699480923,2341.740688447424,0.002628,False,,False,,,,,32
2176.219,1.9234690600001159,-0.86962890625,0.489501953125,-0.00341796875,-0.061068702290076333,0.4580152671755725,0.21374045801526717,4924,-3,1,0.459649623309048,2341.8714441619004,0.001314,False,,False,,,,,32
2176.219,1.9254749950000587,-0.86962890625,0.489501953125,-0.00341796875,-0.061068702290076333,0.4580152671755725,0.21374045801526717,4924,-3,1,0.459649623309048,2341.8714441619004,0.001314,False,,False,,,,,32
2176.224,1.9274698010003704,-0.872802734375,0.486083984375,-0.0009765625,-0.2748091603053435,0.3969465648854962,0.366412213740458,4923,0,3,0.457177699480923,2341.988866803991,0.003942,False,,False,,,,,32
2176.224,1.929471718000059,-0.872802734375,0.486083984375,-0.0009765625,-0.2748091603053435,0.3969465648854962,0.366412213740458,4923,0,3,0.457177699480923,2341.988866803991,0.003942,False,,False,,,,,32
2176.224,1.931472302000202,-0.872802734375,0.486083984375,-0.0009765625,-0.2748091603053435,0.3969465648854962,0.366412213740458,4923,0,3,0.457177699480923,2341.988866803991,0.003942,False,,False,,,,,32
2176.2290000000003,1.933472219000123,-0.87158203125,0.48779296875,-0.0029296875,-0.33587786259541985,0.549618320610687,0.21374045801526717,4925,1,1,0.462121547137173,2342.0952166770435,0.001314,False,,False,,,,,32
2176.2290000000003,1.9354743580001923,-0.87158203125,0.48779296875,-0.0029296875,-0.33587786259541985,0.549618320610687,0.21374045801526717,4925,1,1,0.462121547137173,2342.0952166770435,0.001314,False,,False,,,,,32
2176.234,1.9374787189999552,-0.86767578125,0.489501953125,-0.00048828125,-0.3053435114503817,0.42748091603053434,0.183206106870229,4924,0,4,0.459649623309048,2342.1925464744895,0.005256,False,,False,,,,,32
2176.234,1.9394792840002992,-0.86767578125,0.489501953125,-0.00048828125,-0.3053435114503817,0.42748091603053434,0.183206106870229,4924,0,4,0.459649623309048,2342.1925464744895,0.005256,False,,False,,,,,32
2176.234,1.9414773490002517,-0.86767578125,0.489501953125,-0.00048828125,-0.3053435114503817,0.42748091603053434,0.183206106870229,4924,0,4,0.459649623309048,2342.1925464744895,0.005256,False,,False,,,,,32
2176.239,1.9434824140003002,-0.86572265625,0.490478515625,0.00146484375,-0.2748091603053435,0.48854961832061067,0.030534351145038167,4924,1,0,0.459649623309048,2342.2773338324687,0.0,False,,False,,,,,32
2176.239,1.9454872200003592,-0.86572265625,0.490478515625,0.00146484375,-0.2748091603053435,0.48854961832061067,0.030534351145038167,4924,1,0,0.459649623309048,2342.2773338324687,0.0,False,,False,,,,,32
2176.244,1.9474887480000689,-0.864013671875,0.486572265625,-0.000244140625,-0.0916030534351145,0.3053435114503817,0.030534351145038167,4924,-3,-6,0.459649623309048,2342.3486020940973,-0.007884,False,,False,,,,,32
2176.244,1.9494895170000746,-0.864013671875,0.486572265625,-0.000244140625,-0.0916030534351145,0.3053435114503817,0.030534351145038167,4924,-3,-6,0.459649623309048,2342.3486020940973,-0.007884,False,,False,,,,,32
2176.244,1.9514888970002175,-0.864013671875,0.486572265625,-0.000244140625,-0.0916030534351145,0.3053435114503817,0.030534351145038167,4924,-3,-6,0.459649623309048,2342.3486020940973,-0.007884,False,,False,,,,,32
2176.2490000000003,1.9534916659999908,-0.865234375,0.489013671875,-0.00390625,-0.12213740458015267,0.24427480916030533,0.15267175572519084,4924,1,-8,0.459649623309048,2342.409310475932,-0.010512,False,,False,,,,,32
2176.2490000000003,1.9554914899999858,-0.865234375,0.489013671875,-0.00390625,-0.12213740458015267,0.24427480916030533,0.15267175572519084,4924,1,-8,0.459649623309048,2342.409310475932,-0.010512,False,,False,,,,,32
2176.254,1.9574959810001928,-0.86328125,0.492431640625,-0.00146484375,-0.12213740458015267,0.183206106870229,0.061068702290076333,4924,-4,-2,0.459649623309048,2342.4602988552388,-0.002628,False,,False,,,,,32
2176.254,1.9594955460001984,-0.86328125,0.492431640625,-0.00146484375,-0.12213740458015267,0.183206106870229,0.061068702290076333,4924,-4,-2,0.459649623309048,2342.4602988552388,-0.002628,False,,False,,,,,32
2176.254,1.9614995189999718,-0.86328125,0.492431640625,-0.00146484375,-0.12213740458015267,0.183206106870229,0.061068702290076333,4924,-4,-2,0.459649623309048,2342.4602988552388,-0.002628,False,,False,,,,,32
2176.259,1.9634973430001992,-0.866455078125,0.492919921875,-0.003662109375,-0.33587786259541985,0.0,0.183206106870229,4925,5,-1,0.462121547137173,2342.5042016770344,-0.001314,False,,False,,,,,32
2176.259,1.9654992050000146,-0.866455078125,0.492919921875,-0.003662109375,-0.33587786259541985,0.0,0.183206106870229,4925,5,-1,0.462121547137173,2342.5042016770344,-0.001314,False,,False,,,,,32
2176.264,1.9675034179999784,-0.866455078125,0.491943359375,-0.0048828125,-0.0916030534351145,0.15267175572519084,0.061068702290076333,4925,6,-6,0.462121547137173,2342.5433270953363,-0.007884,False,,False,,,,,32
2176.264,1.9695138350002708,-0.866455078125,0.491943359375,-0.0048828125,-0.0916030534351145,0.15267175572519084,0.061068702290076333,4925,6,-6,0.462121547137173,2342.5433270953363,-0.007884,False,,False,,,,,32
2176.264,1.9715040480000425,-0.866455078125,0.491943359375,-0.0048828125,-0.0916030534351145,0.15267175572519084,0.061068702290076333,4925,6,-6,0.462121547137173,2342.5433270953363,-0.007884,False,,False,,,,,32
2176.2690000000002,1.973507169000186,-0.866455078125,0.490478515625,-0.00537109375,-0.15267175572519084,0.0916030534351145,0.183206106870229,4924,5,3,0.459649623309048,2342.574305150769,0.003942,False,,False,,,,,32
2176.2690000000002,1.9755064380001386,-0.866455078125,0.490478515625,-0.00537109375,-0.15267175572519084,0.0916030534351145,0.183206106870229,4924,5,3,0.459649623309048,2342.574305150769,0.003942,False,,False,,,,,32
2176.274,1.9775110770001447,-0.869140625,0.491455078125,-0.006103515625,-0.24427480916030533,0.183206106870229,0.15267175572519084,4923,0,0,0.457177699480923,2342.5926421011695,0.0,False,,False,,,,,32
2176.274,1.9795123830003831,-0.869140625,0.491455078125,-0.006103515625,-0.24427480916030533,0.183206106870229,0.15267175572519084,4923,0,0,0.457177699480923,2342.5926421011695,0.0,False,,False,,,,,32
2176.274,1.9815117070002088,-0.869140625,0.491455078125,-0.006103515625,-0.24427480916030533,0.183206106870229,0.15267175572519084,4923,0,0,0.457177699480923,2342.5926421011695,0.0,False,,False,,,,,32
2176.279,1.9835157160000563,-0.86962890625,0.491455078125,-0.002197265625,0.12213740458015267,0.061068702290076333,0.15267175572519084,4926,0,0,0.464593470965298,2342.6055020212807,0.0,False,,False,,,,,32
2176.279,1.985514985000009,-0.86962890625,0.491455078125,-0.002197265625,0.12213740458015267,0.061068702290076333,0.15267175572519084,4926,0,0,0.464593470965298,2342.6055020212807,0.0,False,,False,,,,,32
2176.284,1.9875186990002476,-0.870361328125,0.491943359375,-0.003173828125,0.0,0.366412213740458,0.15267175572519084,4924,4,4,0.459649623309048,2342.6189618857197,0.005256,False,,False,,,,,32
2176.284,1.989518801000031,-0.870361328125,0.491943359375,-0.003173828125,0.0,0.366412213740458,0.15267175572519084,4924,4,4,0.459649623309048,2342.6189618857197,0.005256,False,,False,,,,,32
2176.284,1.991522107000037,-0.870361328125,0.491943359375,-0.003173828125,0.0,0.366412213740458,0.15267175572519084,4924,4,4,0.459649623309048,2342.6189618857197,0.005256,False,,False,,,,,32
2176.289,1.993520819999958,-0.871337890625,0.488037109375,-0.0009765625,0.0,0.366412213740458,0.15267175572519084,4925,2,-1,0.462121547137173,2342.627357509901,-0.001314,False,,False,,,,,32
2176.289,1.9955215520003549,-0.871337890625,0.488037109375,-0.0009765625,0.0,0.366412213740458,0.15267175572519084,4925,2,-1,0.462121547137173,2342.627357509901,-0.001314,False,,False,,,,,32
2176.294,1.9975256350003292,-0.869384765625,0.489501953125,-0.000732421875,0.061068702290076333,0.6412213740458015,0.15267175572519084,4924,0,-5,0.459649623309048,2342.629601316558,-0.0065699999999999995,False,,False,,,,,32
2176.294,1.9995251260002078,-0.869384765625,0.489501953125,-0.000732421875,0.061068702290076333,0.6412213740458015,0.15267175572519084,4924,0,-5,0.459649623309048,2342.629601316558,-0.0065699999999999995,False,,False,,,,,32
2176.294,2.0015271730003406,-0.869384765625,0.489501953125,-0.000732421875,0.061068702290076333,0.6412213740458015,0.15267175572519084,4924,0,-5,0.459649623309048,2342.629601316558,-0.0065699999999999995,False,,False,,,,,32
2176.299,2.003527442000177,-0.86767578125,0.491455078125,-0.001220703125,0.0,0.48854961832061067,0.3053435114503817,4924,0,-8,0.459649623309048,2342.6266624298205,-0.010512,False,,False,,,,,32
2176.299,2.005532544000289,-0.86767578125,0.491455078125,-0.001220703125,0.0,0.48854961832061067,0.3053435114503817,4924,0,-8,0.459649623309048,2342.6266624298205,-0.010512,False,,False,,,,,32
2176.304,2.007533350000358,-0.86865234375,0.490966796875,-0.00048828125,0.0,0.48854961832061067,0.3053435114503817,4924,-3,-6,0.459649623309048,2342.6194272613448,-0.007884,False,,False,,,,,32
2176.304,2.0095354700001735,-0.86865234375,0.490966796875,-0.00048828125,0.0,0.48854961832061067,0.3053435114503817,4924,-3,-6,0.459649623309048,2342.6194272613448,-0.007884,False,,False,,,,,32
2176.304,2.0115347210003165,-0.86865234375,0.490966796875,-0.00048828125,0.0,0.48854961832061067,0.3053435114503817,4924,-3,-6,0.459649623309048,2342.6194272613448,-0.007884,False,,False,,,,,32
2176.309,2.013556582000092,-0.865478515625,0.49169921875,0.0029296875,0.0,0.549618320610687,0.2748091603053435,4924,5,4,0.459649623309048,2342.6104906419278,0.005256,False,,False,,,,,32
2176.309,2.0155377579999367,-0.865478515625,0.49169921875,0.0029296875,0.0,0.549618320610687,0.2748091603053435,4924,5,4,0.459649623309048,2342.6104906419278,0.005256,False,,False,,,,,32
2176.314,2.0175408420000167,-0.86767578125,0.489990234375,0.00439453125,0.183206106870229,0.4580152671755725,0.3053435114503817,4923,0,-2,0.457177699480923,2342.5984685579647,-0.002628,False,,False,,,,,32
2176.314,2.0195418880002762,-0.86767578125,0.489990234375,0.00439453125,0.183206106870229,0.4580152671755725,0.3053435114503817,4923,0,-2,0.457177699480923,2342.5984685579647,-0.002628,False,,False,,,,,32
2176.314,2.0215428609999435,-0.86767578125,0.489990234375,0.00439453125,0.183206106870229,0.4580152671755725,0.3053435114503817,4923,0,-2,0.457177699480923,2342.5984685579647,-0.002628,False,,False,,,,,32
2176.319,2.0235439080001925,-0.867919921875,0.489013671875,0.001953125,-0.061068702290076333,0.4580152671755725,0.21374045801526717,4924,0,-6,0.459649623309048,2342.584037541107,-0.007884,False,,False,,,,,32
2176.319,2.0255478430003677,-0.867919921875,0.489013671875,0.001953125,-0.061068702290076333,0.4580152671755725,0.21374045801526717,4924,0,-6,0.459649623309048,2342.584037541107,-0.007884,False,,False,,,,,32
2176.324,2.027549501000067,-0.870849609375,0.4912109375,0.004150390625,0.12213740458015267,0.33587786259541985,0.183206106870229,4925,1,-1,0.462121547137173,2342.573170379748,-0.001314,False,,False,,,,,32
2176.324,2.0295500840002205,-0.870849609375,0.4912109375,0.004150390625,0.12213740458015267,0.33587786259541985,0.183206106870229,4925,1,-1,0.462121547137173,2342.573170379748,-0.001314,False,,False,,,,,32
2176.324,2.0315516680002474,-0.870849609375,0.4912109375,0.004150390625,0.12213740458015267,0.33587786259541985,0.183206106870229,4925,1,-1,0.462121547137173,2342.573170379748,-0.001314,False,,False,,,,,32
2176.329,2.033551473999978,-0.864501953125,0.490478515625,0.0029296875,0.21374045801526717,0.33587786259541985,0.183206106870229,4925,5,0,0.462121547137173,2342.567234745805,0.0,False,,False,,,,,32
2176.329,2.0355542800002695,-0.864501953125,0.490478515625,0.0029296875,0.21374045801526717,0.33587786259541985,0.183206106870229,4925,5,0,0.462121547137173,2342.567234745805,0.0,False,,False,,,,,32
2176.334,2.037556863000191,-0.866455078125,0.49169921875,0.001708984375,-0.030534351145038167,0.2748091603053435,0.21374045801526717,4925,3,-5,0.462121547137173,2342.5619326764668,-0.0065699999999999995,False,,False,,,,,32
2176.334,2.039559465000366,-0.866455078125,0.49169921875,0.001708984375,-0.030534351145038167,0.2748091603053435,0.21374045801526717,4925,3,-5,0.462121547137173,2342.5619326764668,-0.0065699999999999995,False,,False,,,,,32
2176.334,2.0415616230002342,-0.866455078125,0.49169921875,0.001708984375,-0.030534351145038167,0.2748091603053435,0.21374045801526717,4925,3,-5,0.462121547137173,2342.5619326764668,-0.0065699999999999995,False,,False,,,,,32
2176.339,2.04356252100024,-0.864501953125,0.492431640625,0.00048828125,0.15267175572519084,0.24427480916030533,0.2748091603053435,4924,-3,-2,0.459649623309048,2342.553656817855,-0.002628,False,,False,,,,,32
2176.339,2.045562290000362,-0.864501953125,0.492431640625,0.00048828125,0.15267175572519084,0.24427480916030533,0.2748091603053435,4924,-3,-2,0.459649623309048,2342.553656817855,-0.002628,False,,False,,,,,32
2176.344,2.0475655590003043,-0.8662109375,0.48876953125,0.00146484375,0.030534351145038167,0.12213740458015267,0.183206106870229,4924,-2,0,0.459649623309048,2342.541220742586,0.0,False,,False,,,,,32
2176.344,2.0495666060000985,-0.8662109375,0.48876953125,0.00146484375,0.030534351145038167,0.12213740458015267,0.183206106870229,4924,-2,0,0.459649623309048,2342.541220742586,0.0,False,,False,,,,,32
2176.344,2.051568134000263,-0.8662109375,0.48876953125,0.00146484375,0.030534351145038167,0.12213740458015267,0.183206106870229,4924,-2,0,0.459649623309048,2342.541220742586,0.0,False,,False,,,,,32
2176.349,2.0535679950003214,-0.867431640625,0.4892578125,0.0,-0.061068702290076333,0.21374045801526717,0.21374045801526717,4924,-4,2,0.459649623309048,2342.527272471678,0.002628,False,,False,,,,,32
2176.349,2.0555702450001263,-0.867431640625,0.4892578125,0.0,-0.061068702290076333,0.21374045801526717,0.21374045801526717,4924,-4,2,0.459649623309048,2342.527272471678,0.002628,False,,False,,,,,32
2176.3540000000003,2.0575906250001026,-0.865478515625,0.489501953125,0.0,0.0916030534351145,0.183206106870229,0.2748091603053435,4924,-1,3,0.459649623309048,2342.5140507872748,0.003942,False,,False,,,,,32
2176.3540000000003,2.059575431000212,-0.865478515625,0.489501953125,0.0,0.0916030534351145,0.183206106870229,0.2748091603053435,4924,-1,3,0.459649623309048,2342.5140507872748,0.003942,False,,False,,,,,32
2176.3540000000003,2.0615734220000377,-0.865478515625,0.489501953125,0.0,0.0916030534351145,0.183206106870229,0.2748091603053435,4924,-1,3,0.459649623309048,2342.5140507872748,0.003942,False,,False,,,,,32
2176.359,2.0635768209999696,-0.8671875,0.488525390625,0.0009765625,0.061068702290076333,0.183206106870229,0.2748091603053435,4924,-1,-5,0.459649623309048,2342.501628927453,-0.0065699999999999995,False,,False,,,,,32
2176.359,2.0655767930002185,-0.8671875,0.488525390625,0.0009765625,0.061068702290076333,0.183206106870229,0.2748091603053435,4924,-1,-5,0.459649623309048,2342.501628927453,-0.0065699999999999995,False,,False,,,,,32
2176.364,2.067579451000256,-0.86865234375,0.490234375,-0.002685546875,0.0916030534351145,0.33587786259541985,0.12213740458015267,4925,0,0,0.462121547137173,2342.491847123115,0.0,False,,False,,,,,32
2176.364,2.069582535000336,-0.86865234375,0.490234375,-0.002685546875,0.0916030534351145,0.33587786259541985,0.12213740458015267,4925,0,0,0.462121547137173,2342.491847123115,0.0,False,,False,,,,,32
2176.364,2.071594211000047,-0.86865234375,0.490234375,-0.002685546875,0.0916030534351145,0.33587786259541985,0.12213740458015267,4925,0,0,0.462121547137173,2342.491847123115,0.0,False,,False,,,,,32
2176.369,2.073597202000201,-0.86669921875,0.483154296875,0.00048828125,0.0,0.33587786259541985,0.0916030534351145,4925,6,0,0.462121547137173,2342.4862077345,0.0,False,,False,,,,,32
2176.369,2.0755988040000375,-0.86669921875,0.483154296875,0.00048828125,0.0,0.33587786259541985,0.0916030534351145,4925,6,0,0.462121547137173,2342.4862077345,0.0,False,,False,,,,,32
2176.3740000000003,2.077598832000149,-0.86669921875,0.490234375,0.0009765625,0.12213740458015267,0.3053435114503817,0.030534351145038167,4923,-6,-3,0.457177699480923,2342.478746483326,-0.003942,False,,False,,,,,32
2176.3740000000003,2.0795998779999536,-0.86669921875,0.490234375,0.0009765625,0.12213740458015267,0.3053435114503817,0.030534351145038167,4923,-6,-3,0.457177699480923,2342.478746483326,-0.003942,False,,False,,,,,32
2176.3740000000003,2.0816006840000227,-0.86669921875,0.490234375,0.0009765625,0.12213740458015267,0.3053435114503817,0.030534351145038167,4923,-6,-3,0.457177699480923,2342.478746483326,-0.003942,False,,False,,,,,32
2176.379,2.0836021380000602,-0.86865234375,0.488037109375,0.001220703125,0.15267175572519084,0.3969465648854962,0.15267175572519084,4924,-5,-2,0.459649623309048,2342.4662870837874,-0.002628,False,,False,,,,,32
2176.379,2.0856044629999815,-0.86865234375,0.488037109375,0.001220703125,0.15267175572519084,0.3969465648854962,0.15267175572519084,4924,-5,-2,0.459649623309048,2342.4662870837874,-0.002628,False,,False,,,,,32
2176.384,2.0876066570003786,-0.864990234375,0.486572265625,-0.00146484375,0.061068702290076333,0.6412213740458015,0.15267175572519084,4925,3,0,0.462121547137173,2342.456985839495,0.0,False,,False,,,,,32
2176.384,2.0896067600001516,-0.864990234375,0.486572265625,-0.00146484375,0.061068702290076333,0.6412213740458015,0.15267175572519084,4925,3,0,0.462121547137173,2342.456985839495,0.0,False,,False,,,,,32
2176.384,2.091675230999954,-0.864990234375,0.486572265625,-0.00146484375,0.061068702290076333,0.6412213740458015,0.15267175572519084,4925,3,0,0.462121547137173,2342.456985839495,0.0,False,,False,,,,,32
2176.389,2.0936744069999804,-0.867919921875,0.486572265625,0.0,-0.030534351145038167,0.5190839694656488,0.061068702290076333,4924,2,-5,0.459649623309048,2342.4522537927987,-0.0065699999999999995,False,,False,,,,,32
2176.389,2.0956758430002083,-0.867919921875,0.486572265625,0.0,-0.030534351145038167,0.5190839694656488,0.061068702290076333,4924,2,-5,0.459649623309048,2342.4522537927987,-0.0065699999999999995,False,,False,,,,,32
2176.3940000000002,2.097679889000119,-0.86767578125,0.48779296875,0.00048828125,0.030534351145038167,0.7633587786259541,0.183206106870229,4924,-1,-4,0.459649623309048,2342.4460440330827,-0.005256,False,,False,,,,,32
2176.3940000000002,2.099682694999956,-0.86767578125,0.48779296875,0.00048828125,0.030534351145038167,0.7633587786259541,0.183206106870229,4924,-1,-4,0.459649623309048,2342.4460440330827,-0.005256,False,,False,,,,,32
2176.3940000000002,2.1016811310000776,-0.86767578125,0.48779296875,0.00048828125,0.030534351145038167,0.7633587786259541,0.183206106870229,4924,-1,-4,0.459649623309048,2342.4460440330827,-0.005256,False,,False,,,,,32
2176.399,2.103684937000253,-0.86767578125,0.490478515625,0.00048828125,0.030534351145038167,0.48854961832061067,-0.0916030534351145,4924,0,-2,0.459649623309048,2342.4386871190004,-0.002628,False,,False,,,,,32
2176.399,2.1056852050001,-0.86767578125,0.490478515625,0.00048828125,0.030534351145038167,0.48854961832061067,-0.0916030534351145,4924,0,-2,0.459649623309048,2342.4386871190004,-0.002628,False,,False,,,,,32
2176.404,2.1076883630003067,-0.868896484375,0.49169921875,0.002685546875,-0.061068702290076333,0.7633587786259541,0.183206106870229,4924,-2,0,0.459649623309048,2342.4322669108687,0.0,False,,False,,,,,32
2176.404,2.1096889840000586,-0.868896484375,0.49169921875,0.002685546875,-0.061068702290076333,0.7633587786259541,0.183206106870229,4924,-2,0,0.459649623309048,2342.4322669108687,0.0,False,,False,,,,,32
2176.404,2.1116889750001064,-0.868896484375,0.49169921875,0.002685546875,-0.061068702290076333,0.7633587786259541,0.183206106870229,4924,-2,0,0.459649623309048,2342.4322669108687,0.0,False,,False,,,,,32
2176.409,2.113692614000229,-0.8701171875,0.490966796875,0.000244140625,0.15267175572519084,0.6106870229007634,-0.030534351145038167,4924,-1,0,0.459649623309048,2342.4267239027963,0.0,False,,False,,,,,32
2176.409,2.115693475000171,-0.8701171875,0.490966796875,0.000244140625,0.15267175572519084,0.6106870229007634,-0.030534351145038167,4924,-1,0,0.459649623309048,2342.4267239027963,0.0,False,,False,,,,,32
2176.414,2.117695281000124,-0.86865234375,0.48828125,0.002685546875,0.0,0.6106870229007634,0.15267175572519084,4924,0,-4,0.459649623309048,2342.421995569786,-0.005256,False,,False,,,,,32
2176.414,2.119697661000373,-0.86865234375,0.48828125,0.002685546875,0.0,0.6106870229007634,0.15267175572519084,4924,0,-4,0.459649623309048,2342.421995569786,-0.005256,False,,False,,,,,32
2176.414,2.121697986000072,-0.86865234375,0.48828125,0.002685546875,0.0,0.6106870229007634,0.15267175572519084,4924,0,-4,0.459649623309048,2342.421995569786,-0.005256,False,,False,,,,,32
2176.419,2.123698402000173,-0.867431640625,0.486572265625,0.0009765625,0.0916030534351145,0.6412213740458015,0.0,4924,-2,-2,0.459649623309048,2342.4180177666253,-0.002628,False,,False,,,,,32
2176.419,2.125703005000105,-0.867431640625,0.486572265625,0.0009765625,0.0916030534351145,0.6412213740458015,0.0,4924,-2,-2,0.459649623309048,2342.4180177666253,-0.002628,False,,False,,,,,32
2176.424,2.1277035880002586,-0.86767578125,0.48974609375,-0.001708984375,0.15267175572519084,0.48854961832061067,-0.030534351145038167,4924,0,0,0.459649623309048,2342.4147259194015,0.0,False,,False,,,,,32
2176.424,2.129705653000201,-0.86767578125,0.48974609375,-0.001708984375,0.15267175572519084,0.48854961832061067,-0.030534351145038167,4924,0,0,0.459649623309048,2342.4147259194015,0.0,False,,False,,,,,32
2176.424,2.1317065329999423,-0.86767578125,0.48974609375,-0.001708984375,0.15267175572519084,0.48854961832061067,-0.030534351145038167,4924,0,0,0.459649623309048,2342.4147259194015,0.0,False,,False,,,,,32
2176.429,2.1337068760003604,-0.8671875,0.490234375,-0.000732421875,-0.030534351145038167,0.549618320610687,0.0916030534351145,4924,-1,-10,0.459649623309048,2342.4120560292176,-0.013139999999999999,False,,False,,,,,32
2176.429,2.1357100150003134,-0.8671875,0.490234375,-0.000732421875,-0.030534351145038167,0.549618320610687,0.0916030534351145,4924,-1,-10,0.459649623309048,2342.4120560292176,-0.013139999999999999,False,,False,,,,,32
2176.434,2.1377121360001183,-0.86767578125,0.490478515625,-0.001953125,0.0,0.6717557251908397,0.15267175572519084,4925,0,-4,0.462121547137173,2342.411736011419,-0.005256,False,,False,,,,,32
2176.434,2.1397137570002087,-0.86767578125,0.490478515625,-0.001953125,0.0,0.6717557251908397,0.15267175572519084,4925,0,-4,0.462121547137173,2342.411736011419,-0.005256,False,,False,,,,,32
2176.439,2.1417123220003305,-0.869873046875,0.490478515625,-0.003662109375,0.12213740458015267,0.48854961832061067,0.12213740458015267,4925,6,-4,0.462121547137173,2342.4151784046135,-0.005256,False,,False,,,,,32
2176.439,2.143716331000178,-0.869873046875,0.490478515625,-0.003662109375,0.12213740458015267,0.48854961832061067,0.12213740458015267,4925,6,-4,0.462121547137173,2342.4151784046135,-0.005256,False,,False,,,,,32
2176.439,2.1457164890002787,-0.869873046875,0.490478515625,-0.003662109375,0.12213740458015267,0.48854961832061067,0.12213740458015267,4925,6,-4,0.462121547137173,2342.4151784046135,-0.005256,False,,False,,,,,32
2176.444,2.1477197020003587,-0.87109375,0.4892578125,-0.00146484375,-0.030534351145038167,0.5801526717557252,0.0916030534351145,4925,11,1,0.462121547137173,2342.4199302468523,0.001314,False,,False,,,,,32
2176.444,2.149720045000322,-0.87109375,0.4892578125,-0.00146484375,-0.030534351145038167,0.5801526717557252,0.0916030534351145,4925,11,1,0.462121547137173,2342.4199302468523,0.001314,False,,False,,,,,32
2176.444,2.151722555000106,-0.87109375,0.4892578125,-0.00146484375,-0.030534351145038167,0.5801526717557252,0.0916030534351145,4925,11,1,0.462121547137173,2342.4199302468523,0.001314,False,,False,,,,,32
2176.449,2.1537221940002382,-0.866943359375,0.492919921875,-0.0029296875,-0.061068702290076333,0.5801526717557252,0.12213740458015267,4924,1,-1,0.459649623309048,2342.4221284880623,-0.001314,False,,False,,,,,32
2176.449,2.155725518000054,-0.866943359375,0.492919921875,-0.0029296875,-0.061068702290076333,0.5801526717557252,0.12213740458015267,4924,1,-1,0.459649623309048,2342.4221284880623,-0.001314,False,,False,,,,,32
2176.454,2.1577282500002184,-0.869384765625,0.4892578125,-0.00439453125,0.030534351145038167,0.6412213740458015,0.183206106870229,4923,-3,0,0.457177699480923,2342.4185760469227,0.0,False,,False,,,,,32
2176.454,2.1597297600001184,-0.869384765625,0.4892578125,-0.00439453125,0.030534351145038167,0.6412213740458015,0.183206106870229,4923,-3,0,0.457177699480923,2342.4185760469227,0.0,False,,False,,,,,32
2176.459,2.1617294730003778,-0.870361328125,0.49267578125,-0.003662109375,-0.12213740458015267,0.7022900763358778,0.12213740458015267,4924,-5,0,0.459649623309048,2342.412051208219,0.0,False,,False,,,,,32
2176.459,2.163731482000003,-0.870361328125,0.49267578125,-0.003662109375,-0.12213740458015267,0.7022900763358778,0.12213740458015267,4924,-5,0,0.459649623309048,2342.412051208219,0.0,False,,False,,,,,32
2176.459,2.165735529000358,-0.870361328125,0.49267578125,-0.003662109375,-0.12213740458015267,0.7022900763358778,0.12213740458015267,4924,-5,0,0.459649623309048,2342.412051208219,0.0,False,,False,,,,,32
2176.464,2.1677364460001627,-0.87060546875,0.490966796875,-0.005859375,-0.061068702290076333,0.7633587786259541,0.2748091603053435,4924,-2,-7,0.459649623309048,2342.4085039696374,-0.009198,False,,False,,,,,32
2176.464,2.1697451780000847,-0.87060546875,0.490966796875,-0.005859375,-0.061068702290076333,0.7633587786259541,0.2748091603053435,4924,-2,-7,0.459649623309048,2342.4085039696374,-0.009198,False,,False,,,,,32
2176.469,2.171736632000375,-0.870849609375,0.490478515625,-0.0029296875,0.0,0.8244274809160305,0.21374045801526717,4924,-5,-5,0.459649623309048,2342.407500910344,-0.0065699999999999995,False,,False,,,,,32
2176.469,2.173752474000139,-0.870849609375,0.490478515625,-0.0029296875,0.0,0.8244274809160305,0.21374045801526717,4924,-5,-5,0.459649623309048,2342.407500910344,-0.0065699999999999995,False,,False,,,,,32
2176.469,2.1757404660002067,-0.870849609375,0.490478515625,-0.0029296875,0.0,0.8244274809160305,0.21374045801526717,4924,-5,-5,0.459649623309048,2342.407500910344,-0.0065699999999999995,False,,False,,,,,32
2176.474,2.1777434010000434,-0.869140625,0.49072265625,-0.004150390625,0.12213740458015267,0.8854961832061068,0.061068702290076333,4925,-1,0,0.462121547137173,2342.4086423215417,0.0,False,,False,,,,,32
2176.474,2.179745059000197,-0.869140625,0.49072265625,-0.004150390625,0.12213740458015267,0.8854961832061068,0.061068702290076333,4925,-1,0,0.462121547137173,2342.4086423215417,0.0,False,,False,,,,,32
2176.4790000000003,2.181749179000235,-0.8662109375,0.49267578125,-0.00537109375,-0.030534351145038167,0.8549618320610687,0.183206106870229,4925,0,-4,0.462121547137173,2342.413353012943,-0.005256,False,,False,,,,,32
2176.4790000000003,2.183747374000177,-0.8662109375,0.49267578125,-0.00537109375,-0.030534351145038167,0.8549618320610687,0.183206106870229,4925,0,-4,0.462121547137173,2342.413353012943,-0.005256,False,,False,,,,,32
2176.4790000000003,2.185748420999971,-0.8662109375,0.49267578125,-0.00537109375,-0.030534351145038167,0.8549618320610687,0.183206106870229,4925,0,-4,0.462121547137173,2342.413353012943,-0.005256,False,,False,,,,,32
2176.484,2.1877510600002097,-0.8681640625,0.489013671875,-0.0048828125,0.12213740458015267,0.7938931297709924,0.2748091603053435,4925,4,4,0.462121547137173,2342.419193094346,0.005256,False,,False,,,,,32
2176.484,2.189753514000131,-0.8681640625,0.489013671875,-0.0048828125,0.12213740458015267,0.7938931297709924,0.2748091603053435,4925,4,4,0.462121547137173,2342.419193094346,0.005256,False,,False,,,,,32
2176.489,2.1917524680002316,-0.869384765625,0.486328125,-0.00341796875,0.15267175572519084,1.1603053435114503,0.12213740458015267,4925,4,8,0.462121547137173,2342.424103573282,0.010512,False,,False,,,,,32
2176.489,2.1937571810003647,-0.869384765625,0.486328125,-0.00341796875,0.15267175572519084,1.1603053435114503,0.12213740458015267,4925,4,8,0.462121547137173,2342.424103573282,0.010512,False,,False,,,,,32
2176.489,2.195755857000222,-0.869384765625,0.486328125,-0.00341796875,0.15267175572519084,1.1603053435114503,0.12213740458015267,4925,4,8,0.462121547137173,2342.424103573282,0.010512,False,,False,,,,,32
2176.494,2.197759237000355,-0.868896484375,0.48876953125,-0.001708984375,0.030534351145038167,1.0687022900763359,0.12213740458015267,4924,-2,3,0.459649623309048,2342.426374164387,0.003942,False,,False,,,,,32
2176.494,2.1997579320000114,-0.868896484375,0.48876953125,-0.001708984375,0.030534351145038167,1.0687022900763359,0.12213740458015267,4924,-2,3,0.459649623309048,2342.426374164387,0.003942,False,,False,,,,,32
2176.494,2.201760368000123,-0.868896484375,0.48876953125,-0.001708984375,0.030534351145038167,1.0687022900763359,0.12213740458015267,4924,-2,3,0.459649623309048,2342.426374164387,0.003942,False,,False,,,,,32
2176.4990000000003,2.2037612839999383,-0.867431640625,0.489990234375,-0.002197265625,0.12213740458015267,1.0381679389312977,0.24427480916030533,4925,1,2,0.462121547137173,2342.4264017956366,0.002628,False,,False,,,,,32
2176.4990000000003,2.205763776000367,-0.867431640625,0.489990234375,-0.002197265625,0.12213740458015267,1.0381679389312977,0.24427480916030533,4925,1,2,0.462121547137173,2342.4264017956366,0.002628,False,,False,,,,,32
2176.504,2.2077693960000033,-0.86962890625,0.487548828125,-0.001220703125,0.030534351145038167,0.9770992366412213,0.183206106870229,4924,3,0,0.459649623309048,2342.426341766703,0.0,False,,False,,,,,32
2176.504,2.209768664999956,-0.86962890625,0.487548828125,-0.001220703125,0.030534351145038167,0.9770992366412213,0.183206106870229,4924,3,0,0.459649623309048,2342.426341766703,0.0,False,,False,,,,,32
2176.509,2.211769786000332,-0.86572265625,0.49267578125,-0.002685546875,0.0,0.9770992366412213,0.24427480916030533,4925,1,2,0.462121547137173,2342.426209220667,0.002628,False,,False,,,,,32
2176.509,2.2137701470001048,-0.86572265625,0.49267578125,-0.002685546875,0.0,0.9770992366412213,0.24427480916030533,4925,1,2,0.462121547137173,2342.426209220667,0.002628,False,,False,,,,,32
2176.509,2.215822304000085,-0.86572265625,0.49267578125,-0.002685546875,0.0,0.9770992366412213,0.24427480916030533,4925,1,2,0.462121547137173,2342.426209220667,0.002628,False,,False,,,,,32
2176.514,2.2178232950000165,-0.865966796875,0.49169921875,-0.001708984375,0.15267175572519084,0.916030534351145,0.15267175572519084,4924,-8,-5,0.459649623309048,2342.426017884029,-0.0065699999999999995,False,,False,,,,,32
2176.514,2.219826397000361,-0.865966796875,0.49169921875,-0.001708984375,0.15267175572519084,0.916030534351145,0.15267175572519084,4924,-8,-5,0.459649623309048,2342.426017884029,-0.0065699999999999995,False,,False,,,,,32
2176.5190000000002,2.2218279990001975,-0.86572265625,0.488525390625,-0.002197265625,0.24427480916030533,0.6106870229007634,0.0916030534351145,4924,3,-3,0.459649623309048,2342.4239895958817,-0.003942,False,,False,,,,,32
2176.5190000000002,2.223827676000383,-0.86572265625,0.488525390625,-0.002197265625,0.24427480916030533,0.6106870229007634,0.0916030534351145,4924,3,-3,0.459649623309048,2342.4239895958817,-0.003942,False,,False,,,,,32
2176.5190000000002,2.225828926000304,-0.86572265625,0.488525390625,-0.002197265625,0.24427480916030533,0.6106870229007634,0.0916030534351145,4924,3,-3,0.459649623309048,2342.4239895958817,-0.003942,False,,False,,,,,32
2176.524,2.227832287000183,-0.863037109375,0.48876953125,-0.00146484375,0.030534351145038167,0.5801526717557252,0.12213740458015267,4925,-1,-8,0.462121547137173,2342.422243333829,-0.010512,False,,False,,,,,32
2176.524,2.2298316300002625,-0.863037109375,0.48876953125,-0.00146484375,0.030534351145038167,0.5801526717557252,0.12213740458015267,4925,-1,-8,0.462121547137173,2342.422243333829,-0.010512,False,,False,,,,,32
2176.529,2.2318365099999937,-0.864990234375,0.48779296875,-0.0029296875,0.15267175572519084,0.6717557251908397,0.24427480916030533,4925,0,-6,0.462121547137173,2342.424339485574,-0.007884,False,,False,,,,,32
2176.529,2.233836390000306,-0.864990234375,0.48779296875,-0.0029296875,0.15267175572519084,0.6717557251908397,0.24427480916030533,4925,0,-6,0.462121547137173,2342.424339485574,-0.007884,False,,False,,,,,32
2176.529,2.2358386030000474,-0.864990234375,0.48779296875,-0.0029296875,0.15267175572519084,0.6717557251908397,0.24427480916030533,4925,0,-6,0.462121547137173,2342.424339485574,-0.007884,False,,False,,,,,32
2176.534,2.23784089100036,-0.862548828125,0.48779296875,-0.002685546875,0.12213740458015267,0.48854961832061067,0.061068702290076333,4924,-7,0,0.459649623309048,2342.4260410601646,0.0,False,,False,,,,,32
2176.534,2.2398427150001226,-0.862548828125,0.48779296875,-0.002685546875,0.12213740458015267,0.48854961832061067,0.061068702290076333,4924,-7,0,0.459649623309048,2342.4260410601646,0.0,False,,False,,,,,32
2176.539,2.2418438170002446,-0.86181640625,0.48876953125,-0.0048828125,0.183206106870229,0.5190839694656488,0.33587786259541985,4925,3,-2,0.462121547137173,2342.4255971468183,-0.002628,False,,False,,,,,32
2176.539,2.2438429010003347,-0.86181640625,0.48876953125,-0.0048828125,0.183206106870229,0.5190839694656488,0.33587786259541985,4925,3,-2,0.462121547137173,2342.4255971468183,-0.002628,False,,False,,,,,32
2176.539,2.2458460400002878,-0.86181640625,0.48876953125,-0.0048828125,0.183206106870229,0.5190839694656488,0.33587786259541985,4925,3,-2,0.462121547137173,2342.4255971468183,-0.002628,False,,False,,,,,32
2176.544,2.247848957000315,-0.864501953125,0.485107421875,-0.00390625,0.030534351145038167,0.4580152671755725,0.366412213740458,4924,5,-2,0.459649623309048,2342.425154006128,-0.002628,False,,False,,,,,32
2176.544,2.24984998500031,-0.864501953125,0.485107421875,-0.00390625,0.030534351145038167,0.4580152671755725,0.366412213740458,4924,5,-2,0.459649623309048,2342.425154006128,-0.002628,False,,False,,,,,32
2176.549,2.2518535500003054,-0.866943359375,0.48681640625,-0.004638671875,0.15267175572519084,0.42748091603053434,0.33587786259541985,4925,-1,-7,0.462121547137173,2342.424717932721,-0.009198,False,,False,,,,,32
2176.549,2.2538540040000044,-0.866943359375,0.48681640625,-0.004638671875,0.15267175572519084,0.42748091603053434,0.33587786259541985,4925,-1,-7,0.462121547137173,2342.424717932721,-0.009198,False,,False,,,,,32
2176.549,2.255856865000169,-0.866943359375,0.48681640625,-0.004638671875,0.15267175572519084,0.42748091603053434,0.33587786259541985,4925,-1,-7,0.462121547137173,2342.424717932721,-0.009198,False,,False,,,,,32
2176.554,2.2578578750003544,-0.865478515625,0.486083984375,-0.007080078125,0.061068702290076333,0.183206106870229,0.33587786259541985,4925,2,0,0.462121547137173,2342.426084596584,0.0,False,,False,,,,,32
2176.554,2.2598597180003708,-0.865478515625,0.486083984375,-0.007080078125,0.061068702290076333,0.183206106870229,0.33587786259541985,4925,2,0,0.462121547137173,2342.426084596584,0.0,False,,False,,,,,32
2176.559,2.261862487000144,-0.8701171875,0.486572265625,-0.00537109375,0.15267175572519084,0.3969465648854962,0.21374045801526717,4924,0,3,0.459649623309048,2342.4271501755884,0.003942,False,,False,,,,,32
2176.559,2.2638627370001814,-0.8701171875,0.486572265625,-0.00537109375,0.15267175572519084,0.3969465648854962,0.21374045801526717,4924,0,3,0.459649623309048,2342.4271501755884,0.003942,False,,False,,,,,32
2176.559,2.265863246000208,-0.8701171875,0.486572265625,-0.00537109375,0.15267175572519084,0.3969465648854962,0.21374045801526717,4924,0,3,0.459649623309048,2342.4271501755884,0.003942,False,,False,,,,,32
2176.564,2.2678673120003623,-0.87060546875,0.490234375,-0.006103515625,0.12213740458015267,0.3053435114503817,0.366412213740458,4925,4,5,0.462121547137173,2342.4261577517273,0.0065699999999999995,False,,False,,,,,32
2176.564,2.2698695250001037,-0.87060546875,0.490234375,-0.006103515625,0.12213740458015267,0.3053435114503817,0.366412213740458,4925,4,5,0.462121547137173,2342.4261577517273,0.0065699999999999995,False,,False,,,,,32
2176.569,2.2718722570002683,-0.8701171875,0.485107421875,-0.005615234375,0.24427480916030533,0.4580152671755725,0.2748091603053435,4925,0,0,0.462121547137173,2342.427037791708,0.0,False,,False,,,,,32
2176.569,2.273870451000221,-0.8701171875,0.485107421875,-0.005615234375,0.24427480916030533,0.4580152671755725,0.2748091603053435,4925,0,0,0.462121547137173,2342.427037791708,0.0,False,,False,,,,,32
2176.569,2.275873516000047,-0.8701171875,0.485107421875,-0.005615234375,0.24427480916030533,0.4580152671755725,0.2748091603053435,4925,0,0,0.462121547137173,2342.427037791708,0.0,False,,False,,,,,32
2176.574,2.277877933000127,-0.86962890625,0.487548828125,-0.00537109375,0.15267175572519084,0.48854961832061067,0.183206106870229,4925,3,0,0.462121547137173,2342.4294726743883,0.0,False,,False,,,,,32
2176.574,2.279879369000355,-0.86962890625,0.487548828125,-0.00537109375,0.15267175572519084,0.48854961832061067,0.183206106870229,4925,3,0,0.462121547137173,2342.4294726743883,0.0,False,,False,,,,,32
2176.579,2.2818801749999693,-0.87109375,0.48681640625,-0.004150390625,0.12213740458015267,0.7022900763358778,0.2748091603053435,4925,3,0,0.462121547137173,2342.4313834644304,0.0,False,,False,,,,,32
2176.579,2.2838781099999323,-0.87109375,0.48681640625,-0.004150390625,0.12213740458015267,0.7022900763358778,0.2748091603053435,4925,3,0,0.462121547137173,2342.4313834644304,0.0,False,,False,,,,,32
2176.579,2.2858844900001714,-0.87109375,0.48681640625,-0.004150390625,0.12213740458015267,0.7022900763358778,0.2748091603053435,4925,3,0,0.462121547137173,2342.4313834644304,0.0,False,,False,,,,,32
2176.584,2.2878847400002087,-0.86767578125,0.4912109375,-0.004638671875,0.24427480916030533,0.8854961832061068,0.33587786259541985,4925,-3,1,0.462121547137173,2342.432827813412,0.001314,False,,False,,,,,32
2176.584,2.2898875460000454,-0.86767578125,0.4912109375,-0.004638671875,0.24427480916030533,0.8854961832061068,0.33587786259541985,4925,-3,1,0.462121547137173,2342.432827813412,0.001314,False,,False,,,,,32
2176.589,2.291888778000157,-0.868896484375,0.490234375,-0.00244140625,0.061068702290076333,0.549618320610687,0.33587786259541985,4925,0,-5,0.462121547137173,2342.433860743381,-0.0065699999999999995,False,,False,,,,,32
2176.589,2.2939010650002274,-0.868896484375,0.490234375,-0.00244140625,0.061068702290076333,0.549618320610687,0.33587786259541985,4925,0,-5,0.462121547137173,2342.433860743381,-0.0065699999999999995,False,,False,,,,,32
2176.589,2.2958952410003803,-0.868896484375,0.490234375,-0.00244140625,0.061068702290076333,0.549618320610687,0.33587786259541985,4925,0,-5,0.462121547137173,2342.433860743381,-0.0065699999999999995,False,,False,,,,,32
2176.594,2.297895881000386,-0.867919921875,0.4892578125,-0.0029296875,0.12213740458015267,0.7022900763358778,0.4580152671755725,4925,10,0,0.462121547137173,2342.4345342763554,0.0,False,,False,,,,,32
2176.594,2.2998970010003177,-0.867919921875,0.4892578125,-0.0029296875,0.12213740458015267,0.7022900763358778,0.4580152671755725,4925,10,0,0.462121547137173,2342.4345342763554,0.0,False,,False,,,,,32
2176.599,2.3019001400002708,-0.86865234375,0.490966796875,-0.001708984375,0.21374045801526717,0.549618320610687,0.3969465648854962,4924,4,-5,0.459649623309048,2342.4331066665345,-0.0065699999999999995,False,,False,,,,,32
2176.599,2.303904650000277,-0.86865234375,0.490966796875,-0.001708984375,0.21374045801526717,0.549618320610687,0.3969465648854962,4924,4,-5,0.459649623309048,2342.4331066665345,-0.0065699999999999995,False,,False,,,,,32
2176.599,2.305902511000113,-0.86865234375,0.490966796875,-0.001708984375,0.21374045801526717,0.549618320610687,0.3969465648854962,4924,4,-5,0.459649623309048,2342.4331066665345,-0.0065699999999999995,False,,False,,,,,32
2176.6040000000003,2.30790652099995,-0.871337890625,0.487548828125,0.0,0.0,0.24427480916030533,0.4580152671755725,4925,0,-1,0.462121547137173,2342.429940699912,-0.001314,False,,False,,,,,32
2176.6040000000003,2.3099086970000826,-0.871337890625,0.487548828125,0.0,0.0,0.24427480916030533,0.4580152671755725,4925,0,-1,0.462121547137173,2342.429940699912,-0.001314,False,,False,,,,,32
2176.609,2.3119083920000776,-0.867431640625,0.486572265625,-0.00341796875,-0.030534351145038167,0.21374045801526717,0.5190839694656488,4924,0,1,0.459649623309048,2342.427155782302,0.001314,False,,False,,,,,32
2176.609,2.313907735000157,-0.867431640625,0.486572265625,-0.00341796875,-0.030534351145038167,0.21374045801526717,0.5190839694656488,4924,0,1,0.459649623309048,2342.427155782302,0.001314,False,,False,,,,,32
2176.609,2.3159119300003113,-0.867431640625,0.486572265625,-0.00341796875,-0.030534351145038167,0.21374045801526717,0.5190839694656488,4924,0,1,0.459649623309048,2342.427155782302,0.001314,False,,False,,,,,32
2176.614,2.317913050000243,-0.86865234375,0.489013671875,-0.001953125,-0.030534351145038167,0.061068702290076333,0.5801526717557252,4924,-5,0,0.459649623309048,2342.422939712876,0.0,False,,False,,,,,32
2176.614,2.3199137450001217,-0.86865234375,0.489013671875,-0.001953125,-0.030534351145038167,0.061068702290076333,0.5801526717557252,4924,-5,0,0.459649623309048,2342.422939712876,0.0,False,,False,,,,,32
2176.619,2.3219177910000326,-0.87060546875,0.4892578125,-0.000244140625,-0.030534351145038167,-0.061068702290076333,0.549618320610687,4926,7,0,0.464593470965298,2342.4211675940137,0.0,False,,False,,,,,32
2176.619,2.323916115999964,-0.87060546875,0.4892578125,-0.000244140625,-0.030534351145038167,-0.061068702290076333,0.549618320610687,4926,7,0,0.464593470965298,2342.4211675940137,0.0,False,,False,,,,,32
2176.619,2.3259174960003293,-0.87060546875,0.4892578125,-0.000244140625,-0.030534351145038167,-0.061068702290076333,0.549618320610687,4926,7,0,0.464593470965298,2342.4211675940137,0.0,False,,False,,,,,32
2176.6240000000003,2.327923042000293,-0.8701171875,0.4873046875,-0.003662109375,0.0,0.061068702290076333,0.549618320610687,4925,-1,3,0.462121547137173,2342.4250481854833,0.003942,False,,False,,,,,32
2176.6240000000003,2.3299264219999714,-0.8701171875,0.4873046875,-0.003662109375,0.0,0.061068702290076333,0.549618320610687,4925,-1,3,0.462121547137173,2342.4250481854833,0.003942,False,,False,,,,,32
2176.629,2.331924469000114,-0.867919921875,0.48486328125,-0.003662109375,-0.12213740458015267,-0.0916030534351145,0.7022900763358778,4924,-3,0,0.459649623309048,2342.4264428893607,0.0,False,,False,,,,,32
2176.629,2.333927849000247,-0.867919921875,0.48486328125,-0.003662109375,-0.12213740458015267,-0.0916030534351145,0.7022900763358778,4924,-3,0,0.459649623309048,2342.4264428893607,0.0,False,,False,,,,,32
2176.629,2.3359291179999673,-0.867919921875,0.48486328125,-0.003662109375,-0.12213740458015267,-0.0916030534351145,0.7022900763358778,4924,-3,0,0.459649623309048,2342.4264428893607,0.0,False,,False,,,,,32
2176.634,2.3379319420000684,-0.8681640625,0.480712890625,-0.007080078125,-0.24427480916030533,0.12213740458015267,0.42748091603053434,4925,0,3,0.462121547137173,2342.4239457456715,0.003942,False,,False,,,,,32
2176.634,2.3399295070003063,-0.8681640625,0.480712890625,-0.007080078125,-0.24427480916030533,0.12213740458015267,0.42748091603053434,4925,0,3,0.462121547137173,2342.4239457456715,0.003942,False,,False,,,,,32
2176.639,2.3419332570001643,-0.864990234375,0.48583984375,-0.008056640625,0.030534351145038167,0.183206106870229,0.48854961832061067,4925,0,4,0.462121547137173,2342.4235981057745,0.005256,False,,False,,,,,32
2176.639,2.343931100000191,-0.864990234375,0.48583984375,-0.008056640625,0.030534351145038167,0.183206106870229,0.48854961832061067,4925,0,4,0.462121547137173,2342.4235981057745,0.005256,False,,False,,,,,32
2176.639,2.3459383130002607,-0.864990234375,0.48583984375,-0.008056640625,0.030534351145038167,0.183206106870229,0.48854961832061067,4925,0,4,0.462121547137173,2342.4235981057745,0.005256,False,,False,,,,,32
2176.6440000000002,2.3479406559999916,-0.867431640625,0.486572265625,-0.0048828125,-0.030534351145038167,0.42748091603053434,0.48854961832061067,4924,-6,0,0.459649623309048,2342.4232645222373,0.0,False,,False,,,,,32
2176.6440000000002,2.349941073000082,-0.867431640625,0.486572265625,-0.0048828125,-0.030534351145038167,0.42748091603053434,0.48854961832061067,4924,-6,0,0.459649623309048,2342.4232645222373,0.0,False,,False,,,,,32
2176.649,2.3519432870002674,-0.866455078125,0.48583984375,-0.004638671875,0.030534351145038167,0.366412213740458,0.48854961832061067,4923,-8,-4,0.457177699480923,2342.4175760272315,-0.005256,False,,False,,,,,32
2176.649,2.353943221999998,-0.866455078125,0.48583984375,-0.004638671875,0.030534351145038167,0.366412213740458,0.48854961832061067,4923,-8,-4,0.457177699480923,2342.4175760272315,-0.005256,False,,False,,,,,32
2176.649,2.355947305999962,-0.866455078125,0.48583984375,-0.004638671875,0.030534351145038167,0.366412213740458,0.48854961832061067,4923,-8,-4,0.457177699480923,2342.4175760272315,-0.005256,False,,False,,,,,32
2176.654,2.3579465740003798,-0.863037109375,0.488037109375,-0.008056640625,0.0,0.4580152671755725,0.5190839694656488,4925,-4,0,0.462121547137173,2342.411067915374,0.0,False,,False,,,,,32
2176.654,2.3599493250003434,-0.863037109375,0.488037109375,-0.008056640625,0.0,0.4580152671755725,0.5190839694656488,4925,-4,0,0.462121547137173,2342.411067915374,0.0,False,,False,,,,,32
2176.654,2.3619500570002856,-0.863037109375,0.488037109375,-0.008056640625,0.0,0.4580152671755725,0.5190839694656488,4925,-4,0,0.462121547137173,2342.411067915374,0.0,False,,False,,,,,32
2176.659,2.3639494740000373,-0.869384765625,0.487060546875,-0.008544921875,0.0,0.24427480916030533,0.42748091603053434,4925,5,0,0.462121547137173,2342.411129932457,0.0,False,,False,,,,,32
2176.659,2.365950593999969,-0.869384765625,0.487060546875,-0.008544921875,0.0,0.24427480916030533,0.42748091603053434,4925,5,0,0.462121547137173,2342.411129932457,0.0,False,,False,,,,,32
2176.664,2.3679545850000068,-0.869140625,0.483642578125,-0.005615234375,-0.12213740458015267,0.3053435114503817,0.549618320610687,4925,0,0,0.462121547137173,2342.4149009375715,0.0,False,,False,,,,,32
2176.664,2.3699561319999702,-0.869140625,0.483642578125,-0.005615234375,-0.12213740458015267,0.3053435114503817,0.549618320610687,4925,0,0,0.462121547137173,2342.4149009375715,0.0,False,,False,,,,,32
2176.669,2.3719597520002935,-0.8671875,0.488525390625,-0.0068359375,-0.183206106870229,0.2748091603053435,0.3969465648854962,4924,-3,0,0.459649623309048,2342.416350898164,0.0,False,,False,,,,,32
2176.669,2.373958057999971,-0.8671875,0.488525390625,-0.0068359375,-0.183206106870229,0.2748091603053435,0.3969465648854962,4924,-3,0,0.459649623309048,2342.416350898164,0.0,False,,False,,,,,32
2176.669,2.375959549000072,-0.8671875,0.488525390625,-0.0068359375,-0.183206106870229,0.2748091603053435,0.3969465648854962,4924,-3,0,0.459649623309048,2342.416350898164,0.0,False,,False,,,,,32
2176.674,2.3779635030000463,-0.86572265625,0.4853515625,-0.005615234375,-0.183206106870229,0.366412213740458,0.5190839694656488,4925,2,2,0.462121547137173,2342.4158367184614,0.002628,False,,False,,,,,32
2176.674,2.379964050000126,-0.86572265625,0.4853515625,-0.005615234375,-0.183206106870229,0.366412213740458,0.5190839694656488,4925,2,2,0.462121547137173,2342.4158367184614,0.002628,False,,False,,,,,32
2176.679,2.381965689000026,-0.865478515625,0.49267578125,-0.005859375,-0.183206106870229,0.2748091603053435,0.42748091603053434,4924,-2,-4,0.459649623309048,2342.415476148718,-0.005256,False,,False,,,,,32
2176.679,2.3839668280002115,-0.865478515625,0.49267578125,-0.005859375,-0.183206106870229,0.2748091603053435,0.42748091603053434,4924,-2,-4,0.459649623309048,2342.415476148718,-0.005256,False,,False,,,,,32
2176.679,2.385969708000175,-0.865478515625,0.49267578125,-0.005859375,-0.183206106870229,0.2748091603053435,0.42748091603053434,4924,-2,-4,0.459649623309048,2342.415476148718,-0.005256,False,,False,,,,,32
2176.684,2.3879714960003184,-0.867431640625,0.489013671875,-0.004150390625,-0.21374045801526717,0.061068702290076333,0.48854961832061067,4925,0,3,0.462121547137173,2342.4152494011178,0.003942,False,,False,,,,,32
2176.684,2.3899711720000596,-0.867431640625,0.489013671875,-0.004150390625,-0.21374045801526717,0.061068702290076333,0.48854961832061067,4925,0,3,0.462121547137173,2342.4152494011178,0.003942,False,,False,,,,,32
2176.689,2.3919741810000232,-0.865478515625,0.488525390625,-0.004150390625,-0.21374045801526717,0.0916030534351145,0.5190839694656488,4924,-1,-1,0.459649623309048,2342.415137972563,-0.001314,False,,False,,,,,32
2176.689,2.393977043000177,-0.865478515625,0.488525390625,-0.004150390625,-0.21374045801526717,0.0916030534351145,0.5190839694656488,4924,-1,-1,0.459649623309048,2342.415137972563,-0.001314,False,,False,,,,,32
2176.689,2.3959749969999393,-0.865478515625,0.488525390625,-0.004150390625,-0.21374045801526717,0.0916030534351145,0.5190839694656488,4924,-1,-1,0.459649623309048,2342.415137972563,-0.001314,False,,False,,,,,32
2176.694,2.3979794880001464,-0.86767578125,0.488525390625,-0.00341796875,-0.3053435114503817,0.061068702290076333,0.48854961832061067,4924,-9,-5,0.459649623309048,2342.413334197836,-0.0065699999999999995,False,,False,,,,,32
2176.694,2.399980479000078,-0.86767578125,0.488525390625,-0.00341796875,-0.3053435114503817,0.061068702290076333,0.48854961832061067,4924,-9,-5,0.459649623309048,2342.413334197836,-0.0065699999999999995,False,,False,,,,,32
2176.699,2.401981359000274,-0.864990234375,0.48974609375,-0.00146484375,-0.3053435114503817,0.061068702290076333,0.3053435114503817,4925,3,-5,0.462121547137173,2342.4119302561307,-0.0065699999999999995,False,,False,,,,,32
2176.699,2.403981739000301,-0.864990234375,0.48974609375,-0.00146484375,-0.3053435114503817,0.061068702290076333,0.3053435114503817,4925,3,-5,0.462121547137173,2342.4119302561307,-0.0065699999999999995,False,,False,,,,,32
2176.699,2.4059868780000215,-0.864990234375,0.48974609375,-0.00146484375,-0.3053435114503817,0.061068702290076333,0.3053435114503817,4925,3,-5,0.462121547137173,2342.4119302561307,-0.0065699999999999995,False,,False,,,,,32
2176.704,2.407986906000133,-0.8671875,0.490478515625,-0.00341796875,-0.24427480916030533,-0.030534351145038167,0.3969465648854962,4925,2,-2,0.462121547137173,2342.414462393378,-0.002628,False,,False,,,,,32
2176.704,2.4099881930001175,-0.8671875,0.490478515625,-0.00341796875,-0.24427480916030533,-0.030534351145038167,0.3969465648854962,4925,2,-2,0.462121547137173,2342.414462393378,-0.002628,False,,False,,,,,32
2176.709,2.4119902030001867,-0.86474609375,0.4921875,-0.00244140625,-0.24427480916030533,0.12213740458015267,0.33587786259541985,4925,-2,-1,0.462121547137173,2342.418462557927,-0.001314,False,,False,,,,,32
2176.709,2.4139906380000866,-0.86474609375,0.4921875,-0.00244140625,-0.24427480916030533,0.12213740458015267,0.33587786259541985,4925,-2,-1,0.462121547137173,2342.418462557927,-0.001314,False,,False,,,,,32
2176.709,2.415988963000018,-0.86474609375,0.4921875,-0.00244140625,-0.24427480916030533,0.12213740458015267,0.33587786259541985,4925,-2,-1,0.462121547137173,2342.418462557927,-0.001314,False,,False,,,,,32
2176.714,2.417992417000278,-0.865966796875,0.490966796875,-0.00341796875,-0.183206106870229,0.183206106870229,0.33587786259541985,4925,0,0,0.462121547137173,2342.421843275313,0.0,False,,False,,,,,32
2176.714,2.4199937590001355,-0.865966796875,0.490966796875,-0.00341796875,-0.183206106870229,0.183206106870229,0.33587786259541985,4925,0,0,0.462121547137173,2342.421843275313,0.0,False,,False,,,,,32
2176.719,2.4219955100002153,-0.864501953125,0.48974609375,-0.001708984375,-0.33587786259541985,0.12213740458015267,0.366412213740458,4926,4,-2,0.464593470965298,2342.4264469307695,-0.002628,False,,False,,,,,32
2176.719,2.423995075000221,-0.864501953125,0.48974609375,-0.001708984375,-0.33587786259541985,0.12213740458015267,0.366412213740458,4926,4,-2,0.464593470965298,2342.4264469307695,-0.002628,False,,False,,,,,32
2176.719,2.4259961400002794,-0.864501953125,0.48974609375,-0.001708984375,-0.33587786259541985,0.12213740458015267,0.366412213740458,4926,4,-2,0.464593470965298,2342.4264469307695,-0.002628,False,,False,,,,,32
2176.724,2.4279997420003383,-0.86572265625,0.489990234375,-0.001708984375,-0.2748091603053435,0.15267175572519084,0.24427480916030533,4925,-7,-5,0.462121547137173,2342.4320077148723,-0.0065699999999999995,False,,False,,,,,32
2176.724,2.430001122000249,-0.86572265625,0.489990234375,-0.001708984375,-0.2748091603053435,0.15267175572519084,0.24427480916030533,4925,-7,-5,0.462121547137173,2342.4320077148723,-0.0065699999999999995,False,,False,,,,,32
2176.7290000000003,2.4320025570000325,-0.8671875,0.48974609375,-0.00341796875,-0.366412213740458,0.061068702290076333,0.3053435114503817,4925,-3,-3,0.462121547137173,2342.4347082236254,-0.003942,False,,False,,,,,32
2176.7290000000003,2.4340027150001333,-0.8671875,0.48974609375,-0.00341796875,-0.366412213740458,0.061068702290076333,0.3053435114503817,4925,-3,-3,0.462121547137173,2342.4347082236254,-0.003942,False,,False,,,,,32
2176.7290000000003,2.4360062990003826,-0.8671875,0.48974609375,-0.00341796875,-0.366412213740458,0.061068702290076333,0.3053435114503817,4925,-3,-3,0.462121547137173,2342.4347082236254,-0.003942,False,,False,,,,,32
2176.734,2.4380068270002084,-0.867431640625,0.492431640625,-0.00244140625,-0.15267175572519084,0.2748091603053435,0.3053435114503817,4924,3,-1,0.459649623309048,2342.433184537412,-0.001314,False,,False,,,,,32
2176.734,2.4400074110003516,-0.867431640625,0.492431640625,-0.00244140625,-0.15267175572519084,0.2748091603053435,0.3053435114503817,4924,3,-1,0.459649623309048,2342.433184537412,-0.001314,False,,False,,,,,32
2176.739,2.4420094390002305,-0.866943359375,0.488525390625,-0.00244140625,-0.24427480916030533,0.061068702290076333,0.4580152671755725,4925,1,0,0.462121547137173,2342.429937010846,0.0,False,,False,,,,,32
2176.739,2.4440084110001408,-0.866943359375,0.488525390625,-0.00244140625,-0.24427480916030533,0.061068702290076333,0.4580152671755725,4925,1,0,0.462121547137173,2342.429937010846,0.0,False,,False,,,,,32
2176.739,2.4460128099999565,-0.866943359375,0.488525390625,-0.00244140625,-0.24427480916030533,0.061068702290076333,0.4580152671755725,4925,1,0,0.462121547137173,2342.429937010846,0.0,False,,False,,,,,32
2176.744,2.448014541000248,-0.863525390625,0.489501953125,-0.0009765625,-0.2748091603053435,0.061068702290076333,0.21374045801526717,4924,-4,-2,0.459649623309048,2342.427083866189,-0.002628,False,,False,,,,,32
2176.744,2.450014773000021,-0.863525390625,0.489501953125,-0.0009765625,-0.2748091603053435,0.061068702290076333,0.21374045801526717,4924,-4,-2,0.459649623309048,2342.427083866189,-0.002628,False,,False,,,,,32
2176.7490000000003,2.45201691200009,-0.86669921875,0.490478515625,-0.000244140625,-0.24427480916030533,0.2748091603053435,0.33587786259541985,4924,0,4,0.459649623309048,2342.422811718617,0.005256,False,,False,,,,,32
2176.7490000000003,2.4540176440000323,-0.86669921875,0.490478515625,-0.000244140625,-0.24427480916030533,0.2748091603053435,0.33587786259541985,4924,0,4,0.459649623309048,2342.422811718617,0.005256,False,,False,,,,,32
2176.7490000000003,2.4560187649999534,-0.86669921875,0.490478515625,-0.000244140625,-0.24427480916030533,0.2748091603053435,0.33587786259541985,4924,0,4,0.459649623309048,2342.422811718617,0.005256,False,,False,,,,,32
2176.754,2.458023830000002,-0.8662109375,0.49072265625,0.002197265625,-0.21374045801526717,0.3053435114503817,0.21374045801526717,4925,1,3,0.462121547137173,2342.4192040022117,0.003942,False,,False,,,,,32
2176.754,2.460023117000219,-0.8662109375,0.49072265625,0.002197265625,-0.21374045801526717,0.3053435114503817,0.21374045801526717,4925,1,3,0.462121547137173,2342.4192040022117,0.003942,False,,False,,,,,32
2176.759,2.462026127000172,-0.86474609375,0.488037109375,0.00048828125,-0.12213740458015267,0.21374045801526717,0.24427480916030533,4925,0,3,0.462121547137173,2342.4197858084917,0.003942,False,,False,,,,,32
2176.759,2.4640278770002624,-0.86474609375,0.488037109375,0.00048828125,-0.12213740458015267,0.21374045801526717,0.24427480916030533,4925,0,3,0.462121547137173,2342.4197858084917,0.003942,False,,False,,,,,32
2176.759,2.466027275000215,-0.86474609375,0.488037109375,0.00048828125,-0.12213740458015267,0.21374045801526717,0.24427480916030533,4925,0,3,0.462121547137173,2342.4197858084917,0.003942,False,,False,,,,,32
2176.764,2.468031359000179,-0.86572265625,0.49169921875,0.0009765625,-0.0916030534351145,0.24427480916030533,0.12213740458015267,4925,-1,3,0.462121547137173,2342.422076072885,0.003942,False,,False,,,,,32
2176.764,2.470032313000047,-0.86572265625,0.49169921875,0.0009765625,-0.0916030534351145,0.24427480916030533,0.12213740458015267,4925,-1,3,0.462121547137173,2342.422076072885,0.003942,False,,False,,,,,32
2176.7690000000002,2.472036082000159,-0.865966796875,0.49267578125,-0.001708984375,-0.061068702290076333,0.21374045801526717,0.15267175572519084,4926,6,-3,0.464593470965298,2342.4257634478577,-0.003942,False,,False,,,,,32
2176.7690000000002,2.474035202000323,-0.865966796875,0.49267578125,-0.001708984375,-0.061068702290076333,0.21374045801526717,0.15267175572519084,4926,6,-3,0.464593470965298,2342.4257634478577,-0.003942,False,,False,,,,,32
2176.7690000000002,2.476039249000223,-0.865966796875,0.49267578125,-0.001708984375,-0.061068702290076333,0.21374045801526717,0.15267175572519084,4926,6,-3,0.464593470965298,2342.4257634478577,-0.003942,False,,False,,,,,32
2176.774,2.4780407030002607,-0.8642578125,0.4912109375,-0.00048828125,-0.15267175572519084,0.33587786259541985,0.24427480916030533,4925,9,-1,0.462121547137173,2342.4305670409544,-0.001314,False,,False,,,,,32
2176.774,2.4800422870002876,-0.8642578125,0.4912109375,-0.00048828125,-0.15267175572519084,0.33587786259541985,0.24427480916030533,4925,9,-1,0.462121547137173,2342.4305670409544,-0.001314,False,,False,,,,,32
2176.779,2.4820453330003147,-0.865966796875,0.4921875,0.001708984375,-0.12213740458015267,0.2748091603053435,0.3053435114503817,4925,-5,-1,0.462121547137173,2342.4326545154827,-0.001314,False,,False,,,,,32
2176.779,2.4840454350000982,-0.865966796875,0.4921875,0.001708984375,-0.12213740458015267,0.2748091603053435,0.3053435114503817,4925,-5,-1,0.462121547137173,2342.4326545154827,-0.001314,False,,False,,,,,32
2176.779,2.486045611999998,-0.865966796875,0.4921875,0.001708984375,-0.12213740458015267,0.2748091603053435,0.3053435114503817,4925,-5,-1,0.462121547137173,2342.4326545154827,-0.001314,False,,False,,,,,32
2176.784,2.4884778750001715,-0.865966796875,0.491943359375,0.001708984375,-0.0916030534351145,0.24427480916030533,0.24427480916030533,4924,-6,1,0.459649623309048,2342.4306473597717,0.001314,False,,False,,,,,32
2176.784,2.490478273000008,-0.865966796875,0.491943359375,0.001708984375,-0.0916030534351145,0.24427480916030533,0.24427480916030533,4924,-6,1,0.459649623309048,2342.4306473597717,0.001314,False,,False,,,,,32
2176.789,2.492479542000183,-0.866943359375,0.493896484375,0.00146484375,0.0,0.24427480916030533,0.24427480916030533,4925,-3,0,0.462121547137173,2342.427031835267,0.0,False,,False,,,,,32
2176.789,2.4944793290001144,-0.866943359375,0.493896484375,0.00146484375,0.0,0.24427480916030533,0.24427480916030533,4925,-3,0,0.462121547137173,2342.427031835267,0.0,False,,False,,,,,32
2176.789,2.4964830240000992,-0.866943359375,0.493896484375,0.00146484375,0.0,0.24427480916030533,0.24427480916030533,4925,-3,0,0.462121547137173,2342.427031835267,0.0,False,,False,,,,,32
2176.794,2.4984843300003376,-0.868896484375,0.490478515625,-0.000732421875,-0.030534351145038167,0.3969465648854962,0.24427480916030533,4926,5,1,0.464593470965298,2342.4274937043056,0.001314,False,,False,,,,,32
2176.794,2.500485599000058,-0.868896484375,0.490478515625,-0.000732421875,-0.030534351145038167,0.3969465648854962,0.24427480916030533,4926,5,1,0.464593470965298,2342.4274937043056,0.001314,False,,False,,,,,32
2176.794,2.5024861820002116,-0.868896484375,0.490478515625,-0.000732421875,-0.030534351145038167,0.3969465648854962,0.24427480916030533,4926,5,1,0.464593470965298,2342.4274937043056,0.001314,False,,False,,,,,32
2176.794,2.504489618000207,-0.868896484375,0.490478515625,-0.000732421875,-0.030534351145038167,0.3969465648854962,0.24427480916030533,4926,5,1,0.464593470965298,2342.4274937043056,0.001314,False,,False,,,,,32
2176.794,2.5064886270001807,-0.868896484375,0.490478515625,-0.000732421875,-0.030534351145038167,0.3969465648854962,0.24427480916030533,4926,5,1,0.464593470965298,2342.4274937043056,0.001314,False,,False,,,,,32
2176.794,2.508491322000282,-0.868896484375,0.490478515625,-0.000732421875,-0.030534351145038167,0.3969465648854962,0.24427480916030533,4926,5,1,0.464593470965298,2342.4274937043056,0.001314,False,,False,,,,,32
2176.804,2.5104957020002985,-0.866455078125,0.492431640625,-0.001953125,-0.12213740458015267,0.366412213740458,0.15267175572519084,4925,1,-2,0.462121547137173,2338.1905068498163,-0.002628,False,,False,,,,,32
2176.809,2.512495193000177,-0.86865234375,0.489990234375,0.0,0.0,0.3053435114503817,0.12213740458015267,4924,3,2,0.459649623309048,2326.2193681739027,0.002628,False,,False,,,,,32
2176.809,2.5144997950001198,-0.86865234375,0.489990234375,0.0,0.0,0.3053435114503817,0.12213740458015267,4924,3,2,0.459649623309048,2326.2193681739027,0.002628,False,,False,,,,,32
2176.809,2.5164961929999663,-0.86865234375,0.489990234375,0.0,0.0,0.3053435114503817,0.12213740458015267,4924,3,2,0.459649623309048,2326.2193681739027,0.002628,False,,False,,,,,32
2176.814,2.518505796000227,-0.86865234375,0.491455078125,-0.002197265625,-0.030534351145038167,0.33587786259541985,0.2748091603053435,4926,8,-2,0.464593470965298,2312.1894081682412,-0.002628,False,,False,,,,,32
2176.814,2.520502213000327,-0.86865234375,0.491455078125,-0.002197265625,-0.030534351145038167,0.33587786259541985,0.2748091603053435,4926,8,-2,0.464593470965298,2312.1894081682412,-0.002628,False,,False,,,,,32
2176.819,2.5225068330000795,-0.8671875,0.49462890625,-0.00146484375,-0.21374045801526717,0.42748091603053434,0.2748091603053435,4925,-1,0,0.462121547137173,2300.885315974992,0.0,False,,False,,,,,32
2176.819,2.5245073060000323,-0.8671875,0.49462890625,-0.00146484375,-0.21374045801526717,0.42748091603053434,0.2748091603053435,4925,-1,0,0.462121547137173,2300.885315974992,0.0,False,,False,,,,,32
2176.819,2.5265094450001016,-0.8671875,0.49462890625,-0.00146484375,-0.21374045801526717,0.42748091603053434,0.2748091603053435,4925,-1,0,0.462121547137173,2300.885315974992,0.0,False,,False,,,,,32
2176.824,2.5285128990003614,-0.871337890625,0.489990234375,0.000732421875,-0.0916030534351145,0.42748091603053434,0.183206106870229,4924,-5,1,0.459649623309048,2292.0216580717274,0.001314,False,,False,,,,,32
2176.824,2.530515631000071,-0.871337890625,0.489990234375,0.000732421875,-0.0916030534351145,0.42748091603053434,0.183206106870229,4924,-5,1,0.459649623309048,2292.0216580717274,0.001314,False,,False,,,,,32
2176.829,2.5325179920000664,-0.86865234375,0.48974609375,0.00048828125,-0.0916030534351145,0.183206106870229,0.24427480916030533,4925,1,-4,0.462121547137173,2285.3277018561275,-0.005256,False,,False,,,,,32
2176.829,2.534517557000072,-0.86865234375,0.48974609375,0.00048828125,-0.0916030534351145,0.183206106870229,0.24427480916030533,4925,1,-4,0.462121547137173,2285.3277018561275,-0.005256,False,,False,,,,,32
2176.829,2.536518900000374,-0.86865234375,0.48974609375,0.00048828125,-0.0916030534351145,0.183206106870229,0.24427480916030533,4925,1,-4,0.462121547137173,2285.3277018561275,-0.005256,False,,False,,,,,32
2176.834,2.538520854000126,-0.868896484375,0.48681640625,0.000244140625,0.030534351145038167,0.5190839694656488,0.21374045801526717,4925,2,-5,0.462121547137173,2280.552525105364,-0.0065699999999999995,False,,False,,,,,32
2176.834,2.5405232520001846,-0.868896484375,0.48681640625,0.000244140625,0.030534351145038167,0.5190839694656488,0.21374045801526717,4925,2,-5,0.462121547137173,2280.552525105364,-0.0065699999999999995,False,,False,,,,,32
2176.839,2.5425253729999895,-0.86669921875,0.49267578125,0.00048828125,-0.030534351145038167,0.0916030534351145,0.0916030534351145,4925,0,-2,0.462121547137173,2277.452891993614,-0.002628,False,,False,,,,,32
2176.839,2.544525734000217,-0.86669921875,0.49267578125,0.00048828125,-0.030534351145038167,0.0916030534351145,0.0916030534351145,4925,0,-2,0.462121547137173,2277.452891993614,-0.002628,False,,False,,,,,32
2176.839,2.546528540000054,-0.86669921875,0.49267578125,0.00048828125,-0.030534351145038167,0.0916030534351145,0.0916030534351145,4925,0,-2,0.462121547137173,2277.452891993614,-0.002628,False,,False,,,,,32
2176.844,2.5485277540001334,-0.866943359375,0.49072265625,0.000732421875,-0.030534351145038167,0.183206106870229,0.12213740458015267,4925,0,2,0.462121547137173,2275.7991063031614,0.002628,False,,False,,,,,32
2176.844,2.5505314300003192,-0.866943359375,0.49072265625,0.000732421875,-0.030534351145038167,0.183206106870229,0.12213740458015267,4925,0,2,0.462121547137173,2275.7991063031614,0.002628,False,,False,,,,,32
2176.849,2.552533828000378,-0.864501953125,0.488037109375,0.001953125,0.061068702290076333,0.3969465648854962,0.0916030534351145,4925,3,0,0.462121547137173,2275.379715483822,0.0,False,,False,,,,,32
2176.849,2.5545348010000453,-0.864501953125,0.488037109375,0.001953125,0.061068702290076333,0.3969465648854962,0.0916030534351145,4925,3,0,0.462121547137173,2275.379715483822,0.0,False,,False,,,,,32
2176.849,2.5565374030002204,-0.864501953125,0.488037109375,0.001953125,0.061068702290076333,0.3969465648854962,0.0916030534351145,4925,3,0,0.462121547137173,2275.379715483822,0.0,False,,False,,,,,32
2176.8540000000003,2.5585384119999617,-0.8662109375,0.4892578125,0.00146484375,0.061068702290076333,0.21374045801526717,0.2748091603053435,4924,-1,0,0.459649623309048,2275.9980224967285,0.0,False,,False,,,,,32
2176.8540000000003,2.560538885000369,-0.8662109375,0.4892578125,0.00146484375,0.061068702290076333,0.21374045801526717,0.2748091603053435,4924,-1,0,0.459649623309048,2275.9980224967285,0.0,False,,False,,,,,32
2176.859,2.562541302000227,-0.8642578125,0.48779296875,0.0009765625,0.030534351145038167,0.33587786259541985,0.15267175572519084,4924,5,6,0.459649623309048,2277.4743233466274,0.007884,False,,False,,,,,32
2176.859,2.564540977999968,-0.8642578125,0.48779296875,0.0009765625,0.030534351145038167,0.33587786259541985,0.15267175572519084,4924,5,6,0.459649623309048,2277.4743233466274,0.007884,False,,False,,,,,32
2176.859,2.5665489880002497,-0.8642578125,0.48779296875,0.0009765625,0.030534351145038167,0.33587786259541985,0.15267175572519084,4924,5,6,0.459649623309048,2277.4743233466274,0.007884,False,,False,,,,,32
2176.864,2.5685495160000755,-0.8681640625,0.488525390625,-0.00146484375,0.0916030534351145,0.12213740458015267,0.0916030534351145,4925,2,0,0.462121547137173,2279.651115136859,0.0,False,,False,,,,,32
2176.864,2.570549135999954,-0.8681640625,0.488525390625,-0.00146484375,0.0916030534351145,0.12213740458015267,0.0916030534351145,4925,2,0,0.462121547137173,2279.651115136859,0.0,False,,False,,,,,32
2176.869,2.572554090000267,-0.869140625,0.489501953125,-0.00244140625,0.0916030534351145,0.366412213740458,0.0916030534351145,4925,0,-10,0.462121547137173,2282.3863915104157,-0.013139999999999999,False,,False,,,,,32
2176.869,2.574554785000146,-0.869140625,0.489501953125,-0.00244140625,0.0916030534351145,0.366412213740458,0.0916030534351145,4925,0,-10,0.462121547137173,2282.3863915104157,-0.013139999999999999,False,,False,,,,,32
2176.869,2.5765580720003527,-0.869140625,0.489501953125,-0.00244140625,0.0916030534351145,0.366412213740458,0.0916030534351145,4925,0,-10,0.462121547137173,2282.3863915104157,-0.013139999999999999,False,,False,,,,,32
2176.8740000000003,2.578560063000168,-0.870361328125,0.48486328125,0.0009765625,0.15267175572519084,0.24427480916030533,0.2748091603053435,4925,2,-1,0.462121547137173,2285.5478052251815,-0.001314,False,,False,,,,,32
2176.8740000000003,2.5805589060000784,-0.870361328125,0.48486328125,0.0009765625,0.15267175572519084,0.24427480916030533,0.2748091603053435,4925,2,-1,0.462121547137173,2285.5478052251815,-0.001314,False,,False,,,,,32
2176.879,2.5825616010001795,-0.8681640625,0.489013671875,-0.00048828125,0.030534351145038167,0.3053435114503817,0.21374045801526717,4924,-3,-2,0.459649623309048,2289.016593760913,-0.002628,False,,False,,,,,32
2176.879,2.584560851000333,-0.8681640625,0.489013671875,-0.00048828125,0.030534351145038167,0.3053435114503817,0.21374045801526717,4924,-3,-2,0.459649623309048,2289.016593760913,-0.002628,False,,False,,,,,32
2176.879,2.586564009000085,-0.8681640625,0.489013671875,-0.00048828125,0.030534351145038167,0.3053435114503817,0.21374045801526717,4924,-3,-2,0.459649623309048,2289.016593760913,-0.002628,False,,False,,,,,32
2176.884,2.588564703999964,-0.872314453125,0.489990234375,-0.002197265625,0.030534351145038167,0.48854961832061067,0.15267175572519084,4924,-6,-1,0.459649623309048,2292.6906689641446,-0.001314,False,,False,,,,,32
2176.884,2.590567380000266,-0.872314453125,0.489990234375,-0.002197265625,0.030534351145038167,0.48854961832061067,0.15267175572519084,4924,-6,-1,0.459649623309048,2292.6906689641446,-0.001314,False,,False,,,,,32
2176.889,2.592569908000314,-0.875244140625,0.4873046875,-0.0009765625,0.15267175572519084,0.366412213740458,0.24427480916030533,4925,3,2,0.462121547137173,2296.486962085224,0.002628,False,,False,,,,,32
2176.889,2.594569918000161,-0.875244140625,0.4873046875,-0.0009765625,0.15267175572519084,0.366412213740458,0.24427480916030533,4925,3,2,0.462121547137173,2296.486962085224,0.002628,False,,False,,,,,32
2176.889,2.596570963999966,-0.875244140625,0.4873046875,-0.0009765625,0.15267175572519084,0.366412213740458,0.24427480916030533,4925,3,2,0.462121547137173,2296.486962085224,0.002628,False,,False,,,,,32
2176.8940000000002,2.5985720480002783,-0.869384765625,0.486083984375,-0.005615234375,0.15267175572519084,0.48854961832061067,0.21374045801526717,4925,5,0,0.462121547137173,2300.334158953656,0.0,False,,False,,,,,32
2176.8940000000002,2.6005738349999774,-0.869384765625,0.486083984375,-0.005615234375,0.15267175572519084,0.48854961832061067,0.21374045801526717,4925,5,0,0.462121547137173,2300.334158953656,0.0,False,,False,,,,,32
2176.899,2.6025780110003325,-0.870849609375,0.48828125,-0.00244140625,0.0916030534351145,0.5801526717557252,0.061068702290076333,4925,-1,-3,0.462121547137173,2304.1664477148247,-0.003942,False,,False,,,,,32
2176.899,2.6045762799999466,-0.870849609375,0.48828125,-0.00244140625,0.0916030534351145,0.5801526717557252,0.061068702290076333,4925,-1,-3,0.462121547137173,2304.1664477148247,-0.003942,False,,False,,,,,32
2176.899,2.60657977100027,-0.870849609375,0.48828125,-0.00244140625,0.0916030534351145,0.5801526717557252,0.061068702290076333,4925,-1,-3,0.462121547137173,2304.1664477148247,-0.003942,False,,False,,,,,32
2176.904,2.6085806880000746,-0.87255859375,0.486083984375,-0.002685546875,0.15267175572519084,0.7022900763358778,0.12213740458015267,4924,-5,-3,0.459649623309048,2307.927157357112,-0.003942,False,,False,,,,,32
2176.904,2.6105836240003555,-0.87255859375,0.486083984375,-0.002685546875,0.15267175572519084,0.7022900763358778,0.12213740458015267,4924,-5,-3,0.459649623309048,2307.927157357112,-0.003942,False,,False,,,,,32
2176.909,2.612585744000171,-0.86767578125,0.487548828125,-0.000732421875,0.183206106870229,0.7022900763358778,0.15267175572519084,4925,-6,0,0.462121547137173,2311.573461903308,0.0,False,,False,,,,,32
2176.909,2.614586624000367,-0.86767578125,0.487548828125,-0.000732421875,0.183206106870229,0.7022900763358778,0.15267175572519084,4925,-6,0,0.462121547137173,2311.573461903308,0.0,False,,False,,,,,32
2176.909,2.616588892999971,-0.86767578125,0.487548828125,-0.000732421875,0.183206106870229,0.7022900763358778,0.15267175572519084,4925,-6,0,0.462121547137173,2311.573461903308,0.0,False,,False,,,,,32
2176.914,2.618592940000326,-0.87158203125,0.490966796875,0.0,0.183206106870229,0.6412213740458015,0.183206106870229,4926,0,1,0.464593470965298,2315.0765370988856,0.001314,False,,False,,,,,32
2176.914,2.6205905230003737,-0.87158203125,0.490966796875,0.0,0.183206106870229,0.6412213740458015,0.183206106870229,4926,0,1,0.464593470965298,2315.0765370988856,0.001314,False,,False,,,,,32
2176.919,2.6225959769999463,-0.866455078125,0.491455078125,-0.002685546875,0.030534351145038167,0.6412213740458015,0.15267175572519084,4924,-2,-9,0.459649623309048,2318.407164716083,-0.011826,False,,False,,,,,32
2176.919,2.624595005000174,-0.866455078125,0.491455078125,-0.002685546875,0.030534351145038167,0.6412213740458015,0.15267175572519084,4924,-2,-9,0.459649623309048,2318.407164716083,-0.011826,False,,False,,,,,32
2176.919,2.6266740880000725,-0.866455078125,0.491455078125,-0.002685546875,0.030534351145038167,0.6412213740458015,0.15267175572519084,4924,-2,-9,0.459649623309048,2318.407164716083,-0.011826,False,,False,,,,,32
2176.924,2.628674023000258,-0.867919921875,0.487548828125,-0.000732421875,-0.030534351145038167,0.5801526717557252,0.2748091603053435,4925,7,-8,0.462121547137173,2321.53980098323,-0.010512,False,,False,,,,,32
2176.924,2.63067584800001,-0.867919921875,0.487548828125,-0.000732421875,-0.030534351145038167,0.5801526717557252,0.2748091603053435,4925,7,-8,0.462121547137173,2321.53980098323,-0.010512,False,,False,,,,,32
