state_time,loop_time,accel_x,accel_y,accel_z,gyro_x,gyro_y,gyro_z,motor_angle,motor_velocity,motor_current,hip_angle,hip_velocity,hip_torque_from_current,did_heel_strike,gait_phase,did_toe_off,commanded_current,commanded_position,commanded_torque,commanded_voltage,temperature
1550.162,1.6022852309997688,-0.930419921875,0.33935546875,-0.031982421875,-5.648854961832061,3.4198473282442747,1.9541984732824427,3611,4,4,0.08926116943359376,-0.00016844926215788846,0.005256,False,,False,,,,,31
1550.162,1.6042873309997958,-0.930419921875,0.33935546875,-0.031982421875,-5.648854961832061,3.4198473282442747,1.9541984732824427,3611,4,4,0.08926116943359376,-0.00016844926215788846,0.005256,False,,False,,,,,31
1550.162,1.6062922820001404,-0.930419921875,0.33935546875,-0.031982421875,-5.648854961832061,3.4198473282442747,1.9541984732824427,3611,4,4,0.08926116943359376,-0.00016844926215788846,0.005256,False,,False,,,,,31
1550.162,1.608291048999945,-0.930419921875,0.33935546875,-0.031982421875,-5.648854961832061,3.4198473282442747,1.9541984732824427,3611,4,4,0.08926116943359376,-0.00016844926215788846,0.005256,False,,False,,,,,31
1550.162,1.6102919820000352,-0.930419921875,0.33935546875,-0.031982421875,-5.648854961832061,3.4198473282442747,1.9541984732824427,3611,4,4,0.08926116943359376,-0.00016844926215788846,0.005256,False,,False,,,,,31
1550.162,1.6122933040001044,-0.930419921875,0.33935546875,-0.031982421875,-5.648854961832061,3.4198473282442747,1.9541984732824427,3611,4,4,0.08926116943359376,-0.00016844926215788846,0.005256,False,,False,,,,,31
1550.162,1.6142946260001736,-0.930419921875,0.33935546875,-0.031982421875,-5.648854961832061,3.4198473282442747,1.9541984732824427,3611,4,4,0.08926116943359376,-0.00016844926215788846,0.005256,False,,False,,,,,31
1550.162,1.6162988370001585,-0.930419921875,0.33935546875,-0.031982421875,-5.648854961832061,3.4198473282442747,1.9541984732824427,3611,4,4,0.08926116943359376,-0.00016844926215788846,0.005256,False,,False,,,,,31
1550.162,1.6182981960000689,-0.930419921875,0.33935546875,-0.031982421875,-5.648854961832061,3.4198473282442747,1.9541984732824427,3611,4,4,0.08926116943359376,-0.00016844926215788846,0.005256,False,,False,,,,,31
1550.162,1.62029983299999,-0.930419921875,0.33935546875,-0.031982421875,-5.648854961832061,3.4198473282442747,1.9541984732824427,3611,4,4,0.08926116943359376,-0.00016844926215788846,0.005256,False,,False,,,,,31
1550.162,1.622301618000165,-0.930419921875,0.33935546875,-0.031982421875,-5.648854961832061,3.4198473282442747,1.9541984732824427,3611,4,4,0.08926116943359376,-0.00016844926215788846,0.005256,False,,False,,,,,31
1550.162,1.6243021989998851,-0.930419921875,0.33935546875,-0.031982421875,-5.648854961832061,3.4198473282442747,1.9541984732824427,3611,4,4,0.08926116943359376,-0.00016844926215788846,0.005256,False,,False,,,,,31
1550.182,1.6263064660001874,-0.92626953125,0.343017578125,-0.031982421875,-4.7328244274809155,2.900763358778626,2.0763358778625953,3610,0,5,0.08923645019531251,-0.0003953168808430862,0.0065699999999999995,False,,False,,,,,31
1550.1870000000001,1.6283075100000133,-0.927001953125,0.3486328125,-0.03125,-4.580152671755725,2.748091603053435,1.9236641221374045,3610,0,-2,0.08923645019531251,-0.0006537106557449174,-0.002628,False,,False,,,,,31
1550.1870000000001,1.6303086100001565,-0.927001953125,0.3486328125,-0.03125,-4.580152671755725,2.748091603053435,1.9236641221374045,3610,0,-2,0.08923645019531251,-0.0006537106557449174,-0.002628,False,,False,,,,,31
1550.192,1.6323106539998662,-0.927978515625,0.34228515625,-0.02978515625,-4.2748091603053435,2.6564885496183206,2.0763358778625953,3610,1,-2,0.08923645019531251,-0.0008650393161167363,-0.002628,False,,False,,,,,31
1550.192,1.634311642999819,-0.927978515625,0.34228515625,-0.02978515625,-4.2748091603053435,2.6564885496183206,2.0763358778625953,3610,1,-2,0.08923645019531251,-0.0008650393161167363,-0.002628,False,,False,,,,,31
1550.1970000000001,1.6363543719999143,-0.927734375,0.348876953125,-0.033447265625,-4.122137404580153,2.8091603053435112,1.9236641221374045,3610,-5,-2,0.08923645019531251,-0.0010294282053610725,-0.002628,False,,False,,,,,31
1550.1970000000001,1.6383527309999408,-0.927734375,0.348876953125,-0.033447265625,-4.122137404580153,2.8091603053435112,1.9236641221374045,3610,-5,-2,0.08923645019531251,-0.0010294282053610725,-0.002628,False,,False,,,,,31
1550.1970000000001,1.6403570339998623,-0.927734375,0.348876953125,-0.033447265625,-4.122137404580153,2.8091603053435112,1.9236641221374045,3610,-5,-2,0.08923645019531251,-0.0010294282053610725,-0.002628,False,,False,,,,,31
1550.202,1.642358485999921,-0.924072265625,0.35009765625,-0.032470703125,-3.7251908396946565,2.6564885496183206,1.83206106870229,3611,1,0,0.08926116943359376,-0.001134233481027894,0.0,False,,False,,,,,31
1550.202,1.6443597339998632,-0.924072265625,0.35009765625,-0.032470703125,-3.7251908396946565,2.6564885496183206,1.83206106870229,3611,1,0,0.08926116943359376,-0.001134233481027894,0.0,False,,False,,,,,31
1550.207,1.6463612779998584,-0.926513671875,0.350830078125,-0.032470703125,-3.5114503816793894,2.5038167938931295,1.984732824427481,3609,-3,3,0.08921173095703126,-0.0012055432050419503,0.003942,False,,False,,,,,31
1550.207,1.648362951999843,-0.926513671875,0.350830078125,-0.032470703125,-3.5114503816793894,2.5038167938931295,1.984732824427481,3609,-3,3,0.08921173095703126,-0.0012055432050419503,0.003942,False,,False,,,,,31
1550.207,1.6504025139997793,-0.926513671875,0.350830078125,-0.032470703125,-3.5114503816793894,2.5038167938931295,1.984732824427481,3609,-3,3,0.08921173095703126,-0.0012055432050419503,0.003942,False,,False,,,,,31
1550.212,1.652402021999933,-0.924560546875,0.35302734375,-0.0322265625,-3.2061068702290076,2.198473282442748,1.83206106870229,3609,-1,5,0.08921173095703126,-0.0013014931483838572,0.0065699999999999995,False,,False,,,,,31
1550.212,1.6544054920000235,-0.924560546875,0.35302734375,-0.0322265625,-3.2061068702290076,2.198473282442748,1.83206106870229,3609,-1,5,0.08921173095703126,-0.0013014931483838572,0.0065699999999999995,False,,False,,,,,31
1550.217,1.656443090999801,-0.9248046875,0.35009765625,-0.0283203125,-2.8702290076335877,2.045801526717557,1.8931297709923662,3611,1,-1,0.08926116943359376,-0.0013629663056795244,-0.001314,False,,False,,,,,31
1550.217,1.658444432000124,-0.9248046875,0.35009765625,-0.0283203125,-2.8702290076335877,2.045801526717557,1.8931297709923662,3611,1,-1,0.08926116943359376,-0.0013629663056795244,-0.001314,False,,False,,,,,31
1550.217,1.6604468460000135,-0.9248046875,0.35009765625,-0.0283203125,-2.8702290076335877,2.045801526717557,1.8931297709923662,3611,1,-1,0.08926116943359376,-0.0013629663056795244,-0.001314,False,,False,,,,,31
1550.222,1.6624455390001458,-0.921142578125,0.3544921875,-0.0263671875,-2.687022900763359,1.7709923664122136,1.7404580152671756,3611,5,-4,0.08926116943359376,-0.0013230654188377444,-0.005256,False,,False,,,,,31
1550.222,1.664449952999803,-0.921142578125,0.3544921875,-0.0263671875,-2.687022900763359,1.7709923664122136,1.7404580152671756,3611,5,-4,0.08926116943359376,-0.0013230654188377444,-0.005256,False,,False,,,,,31
1550.227,1.666493070999877,-0.919677734375,0.353515625,-0.025390625,-2.4732824427480917,1.6793893129770991,1.7099236641221374,3609,4,4,0.08921173095703126,-0.0012704942422231793,0.005256,False,,False,,,,,31
1550.227,1.6684962449999148,-0.919677734375,0.353515625,-0.025390625,-2.4732824427480917,1.6793893129770991,1.7099236641221374,3609,4,4,0.08921173095703126,-0.0012704942422231793,0.005256,False,,False,,,,,31
1550.227,1.670611676000135,-0.919677734375,0.353515625,-0.025390625,-2.4732824427480917,1.6793893129770991,1.7099236641221374,3609,4,4,0.08921173095703126,-0.0012704942422231793,0.005256,False,,False,,,,,31
1550.232,1.6727367560001767,-0.91455078125,0.35546875,-0.0263671875,-1.9236641221374045,1.2519083969465647,1.4961832061068703,3609,2,1,0.08921173095703126,-0.001279697482404481,0.001314,False,,False,,,,,31
1550.232,1.6747389110000768,-0.91455078125,0.35546875,-0.0263671875,-1.9236641221374045,1.2519083969465647,1.4961832061068703,3609,2,1,0.08921173095703126,-0.001279697482404481,0.001314,False,,False,,,,,31
1550.237,1.6767365850000715,-0.9130859375,0.354736328125,-0.0234375,-1.5877862595419847,0.9770992366412213,1.3740458015267174,3611,9,-3,0.08926116943359376,-0.0012688636393494686,-0.003942,False,,False,,,,,31
1550.237,1.6787403329999506,-0.9130859375,0.354736328125,-0.0234375,-1.5877862595419847,0.9770992366412213,1.3740458015267174,3611,9,-3,0.08926116943359376,-0.0012688636393494686,-0.003942,False,,False,,,,,31
1550.237,1.6807457660002,-0.9130859375,0.354736328125,-0.0234375,-1.5877862595419847,0.9770992366412213,1.3740458015267174,3611,9,-3,0.08926116943359376,-0.0012688636393494686,-0.003942,False,,False,,,,,31
1550.242,1.6827419400001418,-0.91162109375,0.353759765625,-0.02685546875,-1.3740458015267174,0.8549618320610687,1.3740458015267174,3611,1,-3,0.08926116943359376,-0.0011697918981053493,-0.003942,False,,False,,,,,31
1550.242,1.684744688000137,-0.91162109375,0.353759765625,-0.02685546875,-1.3740458015267174,0.8549618320610687,1.3740458015267174,3611,1,-3,0.08926116943359376,-0.0011697918981053493,-0.003942,False,,False,,,,,31
1550.247,1.6867465469999843,-0.90966796875,0.3544921875,-0.02294921875,-1.0687022900763359,0.5190839694656488,1.282442748091603,3609,-1,0,0.08921173095703126,-0.0010699043994030623,0.0,False,,False,,,,,31
1550.247,1.6887447949998204,-0.90966796875,0.3544921875,-0.02294921875,-1.0687022900763359,0.5190839694656488,1.282442748091603,3609,-1,0,0.08921173095703126,-0.0010699043994030623,0.0,False,,False,,,,,31
1550.247,1.6907493029998477,-0.90966796875,0.3544921875,-0.02294921875,-1.0687022900763359,0.5190839694656488,1.282442748091603,3609,-1,0,0.08921173095703126,-0.0010699043994030623,0.0,False,,False,,,,,31
1550.252,1.6927516989999276,-0.913818359375,0.35205078125,-0.021240234375,-0.5801526717557252,0.061068702290076333,1.099236641221374,3609,-1,4,0.08921173095703126,-0.0010424011730308996,0.005256,False,,False,,,,,31
1550.252,1.6947522609998487,-0.913818359375,0.35205078125,-0.021240234375,-0.5801526717557252,0.061068702290076333,1.099236641221374,3609,-1,4,0.08921173095703126,-0.0010424011730308996,0.005256,False,,False,,,,,31
1550.257,1.6967540840000765,-0.911865234375,0.35009765625,-0.022705078125,-0.3969465648854962,-0.33587786259541985,0.9770992366412213,3610,0,11,0.08923645019531251,-0.0010221800379926324,0.014454,False,,False,,,,,31
1550.257,1.6987558870000612,-0.911865234375,0.35009765625,-0.022705078125,-0.3969465648854962,-0.33587786259541985,0.9770992366412213,3610,0,11,0.08923645019531251,-0.0010221800379926324,0.014454,False,,False,,,,,31
1550.257,1.700754004999908,-0.911865234375,0.35009765625,-0.022705078125,-0.3969465648854962,-0.33587786259541985,0.9770992366412213,3610,0,11,0.08923645019531251,-0.0010221800379926324,0.014454,False,,False,,,,,31
1550.262,1.7027551420001146,-0.91748046875,0.349853515625,-0.0205078125,-0.21374045801526717,-0.5801526717557252,0.732824427480916,3609,-10,5,0.08921173095703126,-0.0009725381909088594,0.0065699999999999995,False,,False,,,,,31
1550.267,1.7090563259998817,-0.91357421875,0.34716796875,-0.021240234375,0.061068702290076333,-0.6106870229007634,0.549618320610687,3608,-3,0,0.08918701171875,-0.0009527001363809426,0.0,False,,False,,,,,31
1550.272,1.7110538709998764,-0.922119140625,0.34375,-0.022705078125,0.33587786259541985,-0.9770992366412213,0.4580152671755725,3609,0,-4,0.08921173095703126,-0.0009581006585785046,-0.005256,False,,False,,,,,31
1550.272,1.713055230000009,-0.922119140625,0.34375,-0.022705078125,0.33587786259541985,-0.9770992366412213,0.4580152671755725,3609,0,-4,0.08921173095703126,-0.0009581006585785046,-0.005256,False,,False,,,,,31
1550.272,1.71505723700011,-0.922119140625,0.34375,-0.022705078125,0.33587786259541985,-0.9770992366412213,0.4580152671755725,3609,0,-4,0.08921173095703126,-0.0009581006585785046,-0.005256,False,,False,,,,,31
1550.277,1.7170622630001162,-0.923828125,0.342529296875,-0.0205078125,0.48854961832061067,-1.3129770992366412,0.3053435114503817,3610,2,-2,0.08923645019531251,-0.0009129320515516632,-0.002628,False,,False,,,,,31
1550.277,1.7190598070001215,-0.923828125,0.342529296875,-0.0205078125,0.48854961832061067,-1.3129770992366412,0.3053435114503817,3610,2,-2,0.08923645019531251,-0.0009129320515516632,-0.002628,False,,False,,,,,31
1550.282,1.7212979770001766,-0.927734375,0.34228515625,-0.0234375,0.732824427480916,-1.4351145038167938,0.183206106870229,3609,0,0,0.08921173095703126,-0.0008260822426562819,0.0,False,,False,,,,,31
1550.282,1.7232960400001502,-0.927734375,0.34228515625,-0.0234375,0.732824427480916,-1.4351145038167938,0.183206106870229,3609,0,0,0.08921173095703126,-0.0008260822426562819,0.0,False,,False,,,,,31
1550.282,1.7252978070000609,-0.927734375,0.34228515625,-0.0234375,0.732824427480916,-1.4351145038167938,0.183206106870229,3609,0,0,0.08921173095703126,-0.0008260822426562819,0.0,False,,False,,,,,31
1550.287,1.72729925800013,-0.927734375,0.341552734375,-0.024658203125,0.8854961832061068,-1.4045801526717556,-0.030534351145038167,3609,3,2,0.08921173095703126,-0.0007593109907523207,0.002628,False,,False,,,,,31
1550.287,1.7293002840001463,-0.927734375,0.341552734375,-0.024658203125,0.8854961832061068,-1.4045801526717556,-0.030534351145038167,3609,3,2,0.08921173095703126,-0.0007593109907523207,0.002628,False,,False,,,,,31
1550.2920000000001,1.7313026990000253,-0.93310546875,0.342041015625,-0.024169921875,1.099236641221374,-1.7099236641221374,-0.0916030534351145,3607,2,1,0.08916229248046875,-0.0007461265185172112,0.001314,False,,False,,,,,31
1550.2920000000001,1.7333027619997665,-0.93310546875,0.342041015625,-0.024169921875,1.099236641221374,-1.7099236641221374,-0.0916030534351145,3607,2,1,0.08916229248046875,-0.0007461265185172112,0.001314,False,,False,,,,,31
1550.2920000000001,1.7353051390000473,-0.93310546875,0.342041015625,-0.024169921875,1.099236641221374,-1.7099236641221374,-0.0916030534351145,3607,2,1,0.08916229248046875,-0.0007461265185172112,0.001314,False,,False,,,,,31
1550.297,1.7373065540000425,-0.9375,0.337646484375,-0.0244140625,1.129770992366412,-1.648854961832061,0.061068702290076333,3606,-6,8,0.0891375732421875,-0.0008138049981460294,0.010512,False,,False,,,,,31
1550.297,1.7393070610000905,-0.9375,0.337646484375,-0.0244140625,1.129770992366412,-1.648854961832061,0.061068702290076333,3606,-6,8,0.0891375732421875,-0.0008138049981460294,0.010512,False,,False,,,,,31
1550.3020000000001,1.741309124000054,-0.93603515625,0.3427734375,-0.0244140625,1.0381679389312977,-1.648854961832061,-0.15267175572519084,3606,-9,7,0.0891375732421875,-0.0009302949760791383,0.009198,False,,False,,,,,31
1550.3020000000001,1.7433102790000703,-0.93603515625,0.3427734375,-0.0244140625,1.0381679389312977,-1.648854961832061,-0.15267175572519084,3606,-9,7,0.0891375732421875,-0.0009302949760791383,0.009198,False,,False,,,,,31
1550.3020000000001,1.7453113050000866,-0.93603515625,0.3427734375,-0.0244140625,1.0381679389312977,-1.648854961832061,-0.15267175572519084,3606,-9,7,0.0891375732421875,-0.0009302949760791383,0.009198,False,,False,,,,,31
1550.307,1.7473134789997857,-0.937255859375,0.336669921875,-0.027587890625,1.1908396946564885,-1.465648854961832,-0.030534351145038167,3605,-1,0,0.08911285400390626,-0.0010501514030261411,0.0,False,,False,,,,,31
1550.307,1.7493140229998971,-0.937255859375,0.336669921875,-0.027587890625,1.1908396946564885,-1.465648854961832,-0.030534351145038167,3605,-1,0,0.08911285400390626,-0.0010501514030261411,0.0,False,,False,,,,,31
1550.3120000000001,1.7513159559998712,-0.939453125,0.33984375,-0.028076171875,1.0687022900763359,-1.5267175572519083,-0.061068702290076333,3605,-3,-2,0.08911285400390626,-0.0011710898320937873,-0.002628,False,,False,,,,,31
1550.3120000000001,1.7533169079997606,-0.939453125,0.33984375,-0.028076171875,1.0687022900763359,-1.5267175572519083,-0.061068702290076333,3605,-3,-2,0.08911285400390626,-0.0011710898320937873,-0.002628,False,,False,,,,,31
1550.3120000000001,1.7553188410001894,-0.939453125,0.33984375,-0.028076171875,1.0687022900763359,-1.5267175572519083,-0.061068702290076333,3605,-3,-2,0.08911285400390626,-0.0011710898320937873,-0.002628,False,,False,,,,,31
1550.317,1.7573205710000366,-0.9365234375,0.343994140625,-0.02783203125,1.0076335877862594,-1.465648854961832,0.2748091603053435,3604,-5,3,0.08908813476562501,-0.0012911820915914609,0.003942,False,,False,,,,,31
1550.317,1.7593215040001269,-0.9365234375,0.343994140625,-0.02783203125,1.0076335877862594,-1.465648854961832,0.2748091603053435,3604,-5,3,0.08908813476562501,-0.0012911820915914609,0.003942,False,,False,,,,,31
1550.3220000000001,1.7613236219999635,-0.937744140625,0.348388671875,-0.02490234375,0.732824427480916,-1.4351145038167938,0.6717557251908397,3601,-11,4,0.08901397705078126,-0.0014625413347926833,0.005256,False,,False,,,,,31
1550.3220000000001,1.7633237780000854,-0.937744140625,0.348388671875,-0.02490234375,0.732824427480916,-1.4351145038167938,0.6717557251908397,3601,-11,4,0.08901397705078126,-0.0014625413347926833,0.005256,False,,False,,,,,31
1550.3220000000001,1.7653255999998692,-0.937744140625,0.348388671875,-0.02490234375,0.732824427480916,-1.4351145038167938,0.6717557251908397,3601,-11,4,0.08901397705078126,-0.0014625413347926833,0.005256,False,,False,,,,,31
1550.327,1.7673272739998538,-0.93115234375,0.349853515625,-0.028076171875,-0.061068702290076333,-1.0381679389312977,1.2519083969465647,3594,-29,0,0.08884094238281251,-0.0018354832966764444,0.0,False,,False,,,,,31
1550.327,1.7693272989999969,-0.93115234375,0.349853515625,-0.028076171875,-0.061068702290076333,-1.0381679389312977,1.2519083969465647,3594,-29,0,0.08884094238281251,-0.0018354832966764444,0.0,False,,False,,,,,31
1550.332,1.7713296030001402,-0.912841796875,0.38427734375,-0.028076171875,-3.847328244274809,0.0916030534351145,4.67175572519084,3576,-74,-3,0.08839599609375001,-0.002747789778864774,-0.003942,False,,False,,,,,31
1550.332,1.7733315360001143,-0.912841796875,0.38427734375,-0.028076171875,-3.847328244274809,0.0916030534351145,4.67175572519084,3576,-74,-3,0.08839599609375001,-0.002747789778864774,-0.003942,False,,False,,,,,31
1550.332,1.775332914000046,-0.912841796875,0.38427734375,-0.028076171875,-3.847328244274809,0.0916030534351145,4.67175572519084,3576,-74,-3,0.08839599609375001,-0.002747789778864774,-0.003942,False,,False,,,,,31
1550.337,1.7773339209998085,-0.885009765625,0.395751953125,-0.030517578125,-7.236641221374046,1.2213740458015268,7.0534351145038165,3547,-136,-2,0.08767913818359375,-0.004760912548466853,-0.002628,False,,False,,,,,31
1550.337,1.7793350950000786,-0.885009765625,0.395751953125,-0.030517578125,-7.236641221374046,1.2213740458015268,7.0534351145038165,3547,-136,-2,0.08767913818359375,-0.004760912548466853,-0.002628,False,,False,,,,,31
1550.342,1.7813367499998094,-0.89501953125,0.405029296875,-0.037353515625,-6.045801526717557,1.0381679389312977,7.297709923664121,3514,-140,5,0.0868634033203125,-0.008328941498973922,0.0065699999999999995,False,,False,,,,,31
1550.342,1.783337572000164,-0.89501953125,0.405029296875,-0.037353515625,-6.045801526717557,1.0381679389312977,7.297709923664121,3514,-140,5,0.0868634033203125,-0.008328941498973922,0.0065699999999999995,False,,False,,,,,31
1550.342,1.7853394499998103,-0.89501953125,0.405029296875,-0.037353515625,-6.045801526717557,1.0381679389312977,7.297709923664121,3514,-140,5,0.0868634033203125,-0.008328941498973922,0.0065699999999999995,False,,False,,,,,31
1550.347,1.7873414199998479,-0.892822265625,0.433349609375,-0.043212890625,-3.3893129770992365,1.9236641221374045,9.282442748091603,3474,-174,4,0.0858746337890625,-0.013612551398979756,0.005256,False,,False,,,,,31
1550.347,1.7893430009999065,-0.892822265625,0.433349609375,-0.043212890625,-3.3893129770992365,1.9236641221374045,9.282442748091603,3474,-174,4,0.0858746337890625,-0.013612551398979756,0.005256,False,,False,,,,,31
1550.352,1.7913450269998066,-0.9169921875,0.4033203125,-0.02685546875,-0.732824427480916,1.6793893129770991,10.473282442748092,3433,-180,5,0.08486114501953125,-0.020596067773640103,0.0065699999999999995,False,,False,,,,,31
1550.352,1.7933462010000767,-0.9169921875,0.4033203125,-0.02685546875,-0.732824427480916,1.6793893129770991,10.473282442748092,3433,-180,5,0.08486114501953125,-0.020596067773640103,0.0065699999999999995,False,,False,,,,,31
1550.352,1.7953477450000719,-0.9169921875,0.4033203125,-0.02685546875,-0.732824427480916,1.6793893129770991,10.473282442748092,3433,-180,5,0.08486114501953125,-0.020596067773640103,0.0065699999999999995,False,,False,,,,,31
1550.357,1.79734945600012,-0.887451171875,0.34228515625,-0.037109375,-2.6259541984732824,0.8549618320610687,9.740458015267174,3387,-198,6,0.08372406005859376,-0.029152216952448382,0.007884,False,,False,,,,,31
1550.357,1.7993508889999248,-0.887451171875,0.34228515625,-0.037109375,-2.6259541984732824,0.8549618320610687,9.740458015267174,3387,-198,6,0.08372406005859376,-0.029152216952448382,0.007884,False,,False,,,,,31
1550.362,1.8013525999999729,-0.925048828125,0.376953125,-0.012451171875,-3.7862595419847325,2.5038167938931295,11.297709923664122,3339,-216,1,0.08253753662109375,-0.03913376041147341,0.001314,False,,False,,,,,31
1550.362,1.8033531999999468,-0.925048828125,0.376953125,-0.012451171875,-3.7862595419847325,2.5038167938931295,11.297709923664122,3339,-216,1,0.08253753662109375,-0.03913376041147341,0.001314,False,,False,,,,,31
1550.362,1.805354596000143,-0.925048828125,0.376953125,-0.012451171875,-3.7862595419847325,2.5038167938931295,11.297709923664122,3339,-216,1,0.08253753662109375,-0.03913376041147341,0.001314,False,,False,,,,,31
1550.367,1.8073554180000428,-0.900390625,0.3330078125,-0.02978515625,-2.595419847328244,0.8244274809160305,9.435114503816793,3304,-192,-1,0.08167236328125001,-0.05009239775527271,-0.001314,False,,False,,,,,31
1550.367,1.8093607770001654,-0.900390625,0.3330078125,-0.02978515625,-2.595419847328244,0.8244274809160305,9.435114503816793,3304,-192,-1,0.08167236328125001,-0.05009239775527271,-0.001314,False,,False,,,,,31
1550.372,1.8113599329999488,-0.932373046875,0.336181640625,-0.01513671875,0.9770992366412213,-0.366412213740458,8.274809160305344,3264,-176,-1,0.08068359375,-0.06137008960205458,-0.001314,False,,False,,,,,31
1550.372,1.8133599210000284,-0.932373046875,0.336181640625,-0.01513671875,0.9770992366412213,-0.366412213740458,8.274809160305344,3264,-176,-1,0.08068359375,-0.06137008960205458,-0.001314,False,,False,,,,,31
1550.372,1.8153618360001929,-0.932373046875,0.336181640625,-0.01513671875,0.9770992366412213,-0.366412213740458,8.274809160305344,3264,-176,-1,0.08068359375,-0.06137008960205458,-0.001314,False,,False,,,,,31
1550.377,1.8173640659997545,-0.924072265625,0.32421875,-0.014892578125,-0.42748091603053434,0.7938931297709924,8.458015267175572,3222,-178,-7,0.0796453857421875,-0.07273360615045069,-0.009198,False,,False,,,,,31
1550.377,1.8193652400000246,-0.924072265625,0.32421875,-0.014892578125,-0.42748091603053434,0.7938931297709924,8.458015267175572,3222,-178,-7,0.0796453857421875,-0.07273360615045069,-0.009198,False,,False,,,,,31
1550.382,1.8213666729998295,-0.94775390625,0.3125,-0.003662109375,0.061068702290076333,-0.7633587786259541,6.045801526717557,3189,-141,-5,0.07882965087890625,-0.0840043534129568,-0.0065699999999999995,False,,False,,,,,31
1550.382,1.823368495000068,-0.94775390625,0.3125,-0.003662109375,0.061068702290076333,-0.7633587786259541,6.045801526717557,3189,-141,-5,0.07882965087890625,-0.0840043534129568,-0.0065699999999999995,False,,False,,,,,31
1550.382,1.8253703169998516,-0.94775390625,0.3125,-0.003662109375,0.061068702290076333,-0.7633587786259541,6.045801526717557,3189,-141,-5,0.07882965087890625,-0.0840043534129568,-0.0065699999999999995,False,,False,,,,,31
1550.387,1.8273713059998045,-0.949462890625,0.326416015625,-0.0048828125,1.8015267175572518,0.0916030534351145,5.6183206106870225,3162,-115,-3,0.07816223144531251,-0.09464024878670807,-0.003942,False,,False,,,,,31
1550.387,1.8293730159998631,-0.949462890625,0.326416015625,-0.0048828125,1.8015267175572518,0.0916030534351145,5.6183206106870225,3162,-115,-3,0.07816223144531251,-0.09464024878670807,-0.003942,False,,False,,,,,31
1550.392,1.8313748020000276,-0.985595703125,0.294921875,-0.000244140625,7.450381679389313,-2.8396946564885495,1.1908396946564885,3146,-55,2,0.0777667236328125,-0.10401761717183308,0.002628,False,,False,,,,,31
1550.392,1.8333757720001813,-0.985595703125,0.294921875,-0.000244140625,7.450381679389313,-2.8396946564885495,1.1908396946564885,3146,-55,2,0.0777667236328125,-0.10401761717183308,0.002628,False,,False,,,,,31
1550.392,1.8353772420000496,-0.985595703125,0.294921875,-0.000244140625,7.450381679389313,-2.8396946564885495,1.1908396946564885,3146,-55,2,0.0777667236328125,-0.10401761717183308,0.002628,False,,False,,,,,31
1550.397,1.8373789339998439,-0.97998046875,0.277099609375,-0.005126953125,8.183206106870228,-3.541984732824427,-0.3969465648854962,3142,-16,-7,0.0776678466796875,-0.11148932082073973,-0.009198,False,,False,,,,,31
1550.397,1.8393802189998496,-0.97998046875,0.277099609375,-0.005126953125,8.183206106870228,-3.541984732824427,-0.3969465648854962,3142,-16,-7,0.0776678466796875,-0.11148932082073973,-0.009198,False,,False,,,,,31
1550.402,1.8413811159998659,-1.000244140625,0.27392578125,0.0009765625,6.473282442748092,-3.6946564885496183,-0.5801526717557252,3142,-1,-7,0.0776678466796875,-0.11655909976997285,-0.009198,False,,False,,,,,31
1550.402,1.8433826039999985,-1.000244140625,0.27392578125,0.0009765625,6.473282442748092,-3.6946564885496183,-0.5801526717557252,3142,-1,-7,0.0776678466796875,-0.11655909976997285,-0.009198,False,,False,,,,,31
1550.402,1.8453839449998668,-1.000244140625,0.27392578125,0.0009765625,6.473282442748092,-3.6946564885496183,-0.5801526717557252,3142,-1,-7,0.0776678466796875,-0.11655909976997285,-0.009198,False,,False,,,,,31
1550.407,1.8473847850000311,-0.986572265625,0.2724609375,-0.00537109375,3.145038167938931,-3.2671755725190836,-0.5801526717557252,3142,0,0,0.0776678466796875,-0.11918648610073906,0.0,False,,False,,,,,31
1550.407,1.8493865699997514,-0.986572265625,0.2724609375,-0.00537109375,3.145038167938931,-3.2671755725190836,-0.5801526717557252,3142,0,0,0.0776678466796875,-0.11918648610073906,0.0,False,,False,,,,,31
1550.412,1.851387485000032,-0.97216796875,0.335205078125,-0.021728515625,1.2519083969465647,-2.198473282442748,-0.21374045801526717,3140,-11,1,0.077618408203125,-0.1196952738367938,0.001314,False,,False,,,,,31
1550.412,1.8533882149999954,-0.97216796875,0.335205078125,-0.021728515625,1.2519083969465647,-2.198473282442748,-0.21374045801526717,3140,-11,1,0.077618408203125,-0.1196952738367938,0.001314,False,,False,,,,,31
1550.412,1.8553898330001175,-0.97216796875,0.335205078125,-0.021728515625,1.2519083969465647,-2.198473282442748,-0.21374045801526717,3140,-11,1,0.077618408203125,-0.1196952738367938,0.001314,False,,False,,,,,31
1550.4170000000001,1.8573919139998907,-0.954833984375,0.357666015625,-0.03271484375,1.8931297709923662,-2.229007633587786,0.4580152671755725,3139,-7,1,0.07759368896484375,-0.11847675415943115,0.001314,False,,False,,,,,31
1550.4170000000001,1.8593929769999704,-0.954833984375,0.357666015625,-0.03271484375,1.8931297709923662,-2.229007633587786,0.4580152671755725,3139,-7,1,0.07759368896484375,-0.11847675415943115,0.001314,False,,False,,,,,31
1550.422,1.8613941879998492,-0.952392578125,0.37255859375,-0.037841796875,1.5572519083969465,-1.465648854961832,1.5572519083969465,3130,-36,0,0.0773712158203125,-0.11597305710359959,0.0,False,,False,,,,,31
1550.422,1.8633949179998126,-0.952392578125,0.37255859375,-0.037841796875,1.5572519083969465,-1.465648854961832,1.5572519083969465,3130,-36,0,0.0773712158203125,-0.11597305710359959,0.0,False,,False,,,,,31
1550.422,1.8653966840001885,-0.952392578125,0.37255859375,-0.037841796875,1.5572519083969465,-1.465648854961832,1.5572519083969465,3130,-36,0,0.0773712158203125,-0.11597305710359959,0.0,False,,False,,,,,31
1550.4270000000001,1.8673986170001626,-0.943115234375,0.383056640625,-0.0419921875,0.0,0.061068702290076333,3.5114503816793894,3115,-79,-3,0.07700042724609375,-0.11280570937634257,-0.003942,False,,False,,,,,31
1550.4270000000001,1.8694002359998194,-0.943115234375,0.383056640625,-0.0419921875,0.0,0.061068702290076333,3.5114503816793894,3115,-79,-3,0.07700042724609375,-0.11280570937634257,-0.003942,False,,False,,,,,31
1550.432,1.8714005759998145,-0.9228515625,0.39404296875,-0.0498046875,-2.717557251908397,2.0763358778625953,5.893129770992366,3088,-116,3,0.0763330078125,-0.10970161131640362,0.003942,False,,False,,,,,31
1550.432,1.8734030830000847,-0.9228515625,0.39404296875,-0.0498046875,-2.717557251908397,2.0763358778625953,5.893129770992366,3088,-116,3,0.0763330078125,-0.10970161131640362,0.003942,False,,False,,,,,31
1550.432,1.8754040720000376,-0.9228515625,0.39404296875,-0.0498046875,-2.717557251908397,2.0763358778625953,5.893129770992366,3088,-116,3,0.0763330078125,-0.10970161131640362,0.003942,False,,False,,,,,31
1550.4370000000001,1.87740652399998,-0.923828125,0.414306640625,-0.054931640625,0.916030534351145,2.687022900763359,6.534351145038167,3062,-117,1,0.07569030761718751,-0.10721467914406022,0.001314,False,,False,,,,,31
1550.4370000000001,1.8794129749999229,-0.923828125,0.414306640625,-0.054931640625,0.916030534351145,2.687022900763359,6.534351145038167,3062,-117,1,0.07569030761718751,-0.10721467914406022,0.001314,False,,False,,,,,31
1550.442,1.881408982999801,-0.904296875,0.3984375,-0.05615234375,1.618320610687023,2.6564885496183206,7.603053435114504,3032,-136,4,0.07494873046875,-0.10553112501706943,0.005256,False,,False,,,,,31
1550.442,1.88341054600005,-0.904296875,0.3984375,-0.05615234375,1.618320610687023,2.6564885496183206,7.603053435114504,3032,-136,4,0.07494873046875,-0.10553112501706943,0.005256,False,,False,,,,,31
1550.442,1.8854296270001214,-0.904296875,0.3984375,-0.05615234375,1.618320610687023,2.6564885496183206,7.603053435114504,3032,-136,4,0.07494873046875,-0.10553112501706943,0.005256,False,,False,,,,,31
1550.4470000000001,1.8874123010000403,-0.91552734375,0.361083984375,-0.049072265625,1.3129770992366412,2.198473282442748,6.412213740458015,3000,-126,5,0.07415771484375,-0.10470567881113652,0.0065699999999999995,False,,False,,,,,31
1550.4470000000001,1.8894136230001095,-0.91552734375,0.361083984375,-0.049072265625,1.3129770992366412,2.198473282442748,6.412213740458015,3000,-126,5,0.07415771484375,-0.10470567881113652,0.0065699999999999995,False,,False,,,,,31
1550.452,1.8914185190001263,-0.890380859375,0.366455078125,-0.04052734375,-1.8015267175572518,4.6106870229007635,7.419847328244274,2962,-175,-1,0.07321838378906251,-0.10486125340794379,-0.001314,False,,False,,,,,31
1550.452,1.893416822999825,-0.890380859375,0.366455078125,-0.04052734375,-1.8015267175572518,4.6106870229007635,7.419847328244274,2962,-175,-1,0.07321838378906251,-0.10486125340794379,-0.001314,False,,False,,,,,31
1550.452,1.8954387919998226,-0.890380859375,0.366455078125,-0.04052734375,-1.8015267175572518,4.6106870229007635,7.419847328244274,2962,-175,-1,0.07321838378906251,-0.10486125340794379,-0.001314,False,,False,,,,,31
1550.457,1.8974380029999338,-0.914306640625,0.4072265625,-0.0234375,-1.5267175572519083,5.099236641221374,8.610687022900763,2921,-182,5,0.07220489501953126,-0.10614025256211718,0.0065699999999999995,False,,False,,,,,31
1550.457,1.8994401400000243,-0.914306640625,0.4072265625,-0.0234375,-1.5267175572519083,5.099236641221374,8.610687022900763,2921,-182,5,0.07220489501953126,-0.10614025256211718,0.0065699999999999995,False,,False,,,,,31
1550.462,1.9014407959998607,-0.869873046875,0.37890625,-0.043212890625,-1.5877862595419847,5.251908396946565,7.66412213740458,2878,-188,4,0.07114196777343751,-0.10859190421527909,0.005256,False,,False,,,,,31
1550.462,1.903442025000004,-0.869873046875,0.37890625,-0.043212890625,-1.5877862595419847,5.251908396946565,7.66412213740458,2878,-188,4,0.07114196777343751,-0.10859190421527909,0.005256,False,,False,,,,,31
1550.462,1.9054450879998512,-0.869873046875,0.37890625,-0.043212890625,-1.5877862595419847,5.251908396946565,7.66412213740458,2878,-188,4,0.07114196777343751,-0.10859190421527909,0.005256,False,,False,,,,,31
1550.467,1.9074447429998145,-0.9189453125,0.4248046875,-0.023193359375,1.8931297709923662,4.641221374045801,8.091603053435113,2835,-188,6,0.07007904052734376,-0.11211509790968667,0.007884,False,,False,,,,,31
1550.467,1.9094458059998942,-0.9189453125,0.4248046875,-0.023193359375,1.8931297709923662,4.641221374045801,8.091603053435113,2835,-188,6,0.07007904052734376,-0.11211509790968667,0.007884,False,,False,,,,,31
1550.472,1.9114472209998894,-0.9208984375,0.416015625,-0.01708984375,3.0534351145038165,4.244274809160305,8.732824427480915,2792,-189,1,0.06901611328125,-0.11652013748100612,0.001314,False,,False,,,,,31
1550.472,1.9134492279999904,-0.9208984375,0.416015625,-0.01708984375,3.0534351145038165,4.244274809160305,8.732824427480915,2792,-189,1,0.06901611328125,-0.11652013748100612,0.001314,False,,False,,,,,31
1550.472,1.9154516610001338,-0.9208984375,0.416015625,-0.01708984375,3.0534351145038165,4.244274809160305,8.732824427480915,2792,-189,1,0.06901611328125,-0.11652013748100612,0.001314,False,,False,,,,,31
1550.477,1.9174508350001815,-0.880615234375,0.359375,-0.03662109375,0.7022900763358778,3.236641221374046,7.32824427480916,2746,-203,1,0.0678790283203125,-0.12165334276316668,0.001314,False,,False,,,,,31
1550.477,1.9194523050000498,-0.880615234375,0.359375,-0.03662109375,0.7022900763358778,3.236641221374046,7.32824427480916,2746,-203,1,0.0678790283203125,-0.12165334276316668,0.001314,False,,False,,,,,31
1550.482,1.921452534999844,-0.933349609375,0.41015625,-0.0166015625,1.5267175572519083,4.305343511450381,8.183206106870228,2701,-194,9,0.06676666259765625,-0.12741131688713225,0.011826,False,,False,,,,,31
1550.482,1.9234543379998286,-0.933349609375,0.41015625,-0.0166015625,1.5267175572519083,4.305343511450381,8.183206106870228,2701,-194,9,0.06676666259765625,-0.12741131688713225,0.011826,False,,False,,,,,31
1550.482,1.9254578089999086,-0.933349609375,0.41015625,-0.0166015625,1.5267175572519083,4.305343511450381,8.183206106870228,2701,-194,9,0.06676666259765625,-0.12741131688713225,0.011826,False,,False,,,,,31
1550.487,1.9274572599997555,-0.9169921875,0.380615234375,-0.034912109375,4.702290076335878,1.5267175572519083,5.893129770992366,2663,-171,7,0.06582733154296876,-0.133501491577929,0.009198,False,,False,,,,,31
1550.487,1.9294581929998458,-0.9169921875,0.380615234375,-0.034912109375,4.702290076335878,1.5267175572519083,5.893129770992366,2663,-171,7,0.06582733154296876,-0.133501491577929,0.009198,False,,False,,,,,31
1550.492,1.9314596819999679,-0.939208984375,0.356689453125,-0.031005859375,6.381679389312977,-0.21374045801526717,4.6106870229007635,2624,-162,-1,0.06486328125,-0.13953088121204324,-0.001314,False,,False,,,,,31
1550.492,1.933461614999942,-0.939208984375,0.356689453125,-0.031005859375,6.381679389312977,-0.21374045801526717,4.6106870229007635,2624,-162,-1,0.06486328125,-0.13953088121204324,-0.001314,False,,False,,,,,31
1550.492,1.9354633630000535,-0.939208984375,0.356689453125,-0.031005859375,6.381679389312977,-0.21374045801526717,4.6106870229007635,2624,-162,-1,0.06486328125,-0.13953088121204324,-0.001314,False,,False,,,,,31
1550.497,1.9374643890000698,-0.953125,0.374755859375,-0.033203125,5.312977099236641,1.5572519083969465,5.465648854961832,2588,-162,3,0.063973388671875,-0.14527879626273973,0.003942,False,,False,,,,,31
1550.497,1.9394648960001177,-0.953125,0.374755859375,-0.033203125,5.312977099236641,1.5572519083969465,5.465648854961832,2588,-162,3,0.063973388671875,-0.14527879626273973,0.003942,False,,False,,,,,31
1550.502,1.9414674780000496,-0.94775390625,0.36279296875,-0.037109375,4.580152671755725,0.183206106870229,3.6030534351145036,2556,-136,-2,0.063182373046875,-0.1505466521111244,-0.002628,False,,False,,,,,31
1550.502,1.94346841100014,-0.94775390625,0.36279296875,-0.037109375,4.580152671755725,0.183206106870229,3.6030534351145036,2556,-136,-2,0.063182373046875,-0.1505466521111244,-0.002628,False,,False,,,,,31
1550.502,1.9454714739999872,-0.94775390625,0.36279296875,-0.037109375,4.580152671755725,0.183206106870229,3.6030534351145036,2556,-136,-2,0.063182373046875,-0.1505466521111244,-0.002628,False,,False,,,,,31
1550.507,1.9474715360001937,-0.958740234375,0.411376953125,-0.035400390625,5.6183206106870225,1.3435114503816794,5.007633587786259,2519,-159,-5,0.06226776123046875,-0.15522886696920044,-0.0065699999999999995,False,,False,,,,,31
1550.507,1.9494721549999667,-0.958740234375,0.411376953125,-0.035400390625,5.6183206106870225,1.3435114503816794,5.007633587786259,2519,-159,-5,0.06226776123046875,-0.15522886696920044,-0.0065699999999999995,False,,False,,,,,31
1550.512,1.9514744210000572,-0.951171875,0.447021484375,-0.038330078125,4.7328244274809155,1.099236641221374,5.893129770992366,2481,-170,-1,0.061328430175781254,-0.15947829926365203,-0.001314,False,,False,,,,,31
1550.512,1.9534756879997985,-0.951171875,0.447021484375,-0.038330078125,4.7328244274809155,1.099236641221374,5.893129770992366,2481,-170,-1,0.061328430175781254,-0.15947829926365203,-0.001314,False,,False,,,,,31
1550.512,1.955479546999868,-0.951171875,0.447021484375,-0.038330078125,4.7328244274809155,1.099236641221374,5.893129770992366,2481,-170,-1,0.061328430175781254,-0.15947829926365203,-0.001314,False,,False,,,,,31
1550.517,1.9574786100001802,-0.9091796875,0.425537109375,-0.06005859375,4.152671755725191,1.3435114503816794,5.6183206106870225,2437,-196,-6,0.06024078369140625,-0.163536619116995,-0.007884,False,,False,,,,,31
1550.517,1.959480486999837,-0.9091796875,0.425537109375,-0.06005859375,4.152671755725191,1.3435114503816794,5.6183206106870225,2437,-196,-6,0.06024078369140625,-0.163536619116995,-0.007884,False,,False,,,,,31
1550.522,1.9614809019999484,-0.95068359375,0.4716796875,-0.045166015625,6.961832061068702,0.7938931297709924,6.473282442748092,2396,-182,-4,0.05922729492187501,-0.16755520179002809,-0.005256,False,,False,,,,,31
1550.522,1.963486501999796,-0.95068359375,0.4716796875,-0.045166015625,6.961832061068702,0.7938931297709924,6.473282442748092,2396,-182,-4,0.05922729492187501,-0.16755520179002809,-0.005256,False,,False,,,,,31
1550.522,1.965486305000013,-0.95068359375,0.4716796875,-0.045166015625,6.961832061068702,0.7938931297709924,6.473282442748092,2396,-182,-4,0.05922729492187501,-0.16755520179002809,-0.005256,False,,False,,,,,31
1550.527,1.967486165000082,-0.899169921875,0.43603515625,-0.074462890625,7.083969465648854,0.732824427480916,6.3206106870229,2350,-203,-4,0.05809020996093751,-0.17157182632684737,-0.005256,False,,False,,,,,31
1550.527,1.9694867090001935,-0.899169921875,0.43603515625,-0.074462890625,7.083969465648854,0.732824427480916,6.3206106870229,2350,-203,-4,0.05809020996093751,-0.17157182632684737,-0.005256,False,,False,,,,,31
1550.532,1.9714883460001147,-0.887939453125,0.43701171875,-0.07275390625,5.740458015267175,0.3969465648854962,7.786259541984733,2297,-238,3,0.056780090332031255,-0.17577929439198212,0.003942,False,,False,,,,,31
1550.532,1.9734906489998139,-0.887939453125,0.43701171875,-0.07275390625,5.740458015267175,0.3969465648854962,7.786259541984733,2297,-238,3,0.056780090332031255,-0.17577929439198212,0.003942,False,,False,,,,,31
1550.532,1.9754933600002005,-0.887939453125,0.43701171875,-0.07275390625,5.740458015267175,0.3969465648854962,7.786259541984733,2297,-238,3,0.056780090332031255,-0.17577929439198212,0.003942,False,,False,,,,,31
1550.537,1.9774933119997513,-0.91943359375,0.466064453125,-0.065185546875,7.358778625954198,1.4045801526717556,8.061068702290076,2243,-234,8,0.055445251464843755,-0.18044368155340623,0.010512,False,,False,,,,,31
1550.537,1.9794953380001061,-0.91943359375,0.466064453125,-0.065185546875,7.358778625954198,1.4045801526717556,8.061068702290076,2243,-234,8,0.055445251464843755,-0.18044368155340623,0.010512,False,,False,,,,,31
1550.5420000000001,1.9814963079998051,-0.932861328125,0.490234375,-0.060791015625,10.320610687022901,-1.3435114503816794,8.427480916030534,2190,-232,0,0.0541351318359375,-0.18556626163261616,0.0,False,,False,,,,,31
1550.5420000000001,1.983497425999758,-0.932861328125,0.490234375,-0.060791015625,10.320610687022901,-1.3435114503816794,8.427480916030534,2190,-232,0,0.0541351318359375,-0.18556626163261616,0.0,False,,False,,,,,31
1550.5420000000001,1.9855005999997957,-0.932861328125,0.490234375,-0.060791015625,10.320610687022901,-1.3435114503816794,8.427480916030534,2190,-232,0,0.0541351318359375,-0.18556626163261616,0.0,False,,False,,,,,31
1550.547,1.9874996630001078,-0.894287109375,0.43994140625,-0.082275390625,12.030534351145038,-2.5038167938931295,7.236641221374046,2139,-232,2,0.052874450683593754,-0.19094450787599707,0.002628,False,,False,,,,,31
1550.547,1.9895036889997755,-0.894287109375,0.43994140625,-0.082275390625,12.030534351145038,-2.5038167938931295,7.236641221374046,2139,-232,2,0.052874450683593754,-0.19094450787599707,0.002628,False,,False,,,,,31
1550.5520000000001,1.9915044740000667,-0.913818359375,0.4599609375,-0.046875,11.81679389312977,-5.251908396946565,8.274809160305344,2088,-223,5,0.051613769531250006,-0.1963693547525565,0.0065699999999999995,False,,False,,,,,31
1550.5520000000001,1.9935031850000087,-0.913818359375,0.4599609375,-0.046875,11.81679389312977,-5.251908396946565,8.274809160305344,2088,-223,5,0.051613769531250006,-0.1963693547525565,0.0065699999999999995,False,,False,,,,,31
1550.5520000000001,1.995506376999856,-0.913818359375,0.4599609375,-0.046875,11.81679389312977,-5.251908396946565,8.274809160305344,2088,-223,5,0.051613769531250006,-0.1963693547525565,0.0065699999999999995,False,,False,,,,,31
1550.557,1.9975070509999568,-0.87646484375,0.4384765625,-0.05419921875,10.748091603053435,-5.862595419847328,7.633587786259541,2033,-245,5,0.05025421142578125,-0.20179043663687435,0.0065699999999999995,False,,False,,,,,31
1550.557,1.9995079659997828,-0.87646484375,0.4384765625,-0.05419921875,10.748091603053435,-5.862595419847328,7.633587786259541,2033,-245,5,0.05025421142578125,-0.20179043663687435,0.0065699999999999995,False,,False,,,,,31
1550.5620000000001,2.001509436000106,-0.8974609375,0.470458984375,-0.040771484375,9.374045801526718,-5.83206106870229,9.068702290076336,1974,-267,-2,0.0487957763671875,-0.2073446933105947,-0.002628,False,,False,,,,,31
1550.5620000000001,2.0035105359997942,-0.8974609375,0.470458984375,-0.040771484375,9.374045801526718,-5.83206106870229,9.068702290076336,1974,-267,-2,0.0487957763671875,-0.2073446933105947,-0.002628,False,,False,,,,,31
1550.5620000000001,2.0055150990001493,-0.8974609375,0.470458984375,-0.040771484375,9.374045801526718,-5.83206106870229,9.068702290076336,1974,-267,-2,0.0487957763671875,-0.2073446933105947,-0.002628,False,,False,,,,,31
1550.567,2.0075143280000702,-0.877685546875,0.4970703125,-0.04931640625,9.709923664122137,-7.450381679389313,9.862595419847327,1906,-296,1,0.047114868164062504,-0.21330598435457215,0.001314,False,,False,,,,,31
1550.567,2.0095156689999385,-0.877685546875,0.4970703125,-0.04931640625,9.709923664122137,-7.450381679389313,9.862595419847327,1906,-296,1,0.047114868164062504,-0.21330598435457215,0.001314,False,,False,,,,,31
1550.5720000000001,2.011517249999997,-0.8349609375,0.477294921875,-0.06591796875,11.022900763358779,-8.702290076335878,10.99236641221374,1832,-326,0,0.04528564453125,-0.22002301868118207,0.0,False,,False,,,,,31
1550.5720000000001,2.0135179419999076,-0.8349609375,0.477294921875,-0.06591796875,11.022900763358779,-8.702290076335878,10.99236641221374,1832,-326,0,0.04528564453125,-0.22002301868118207,0.0,False,,False,,,,,31
1550.5720000000001,2.015521524000178,-0.8349609375,0.477294921875,-0.06591796875,11.022900763358779,-8.702290076335878,10.99236641221374,1832,-326,0,0.04528564453125,-0.22002301868118207,0.0,False,,False,,,,,31
1550.577,2.0175203459998556,-0.848388671875,0.474609375,-0.068603515625,14.045801526717558,-9.49618320610687,10.625954198473282,1756,-327,1,0.043406982421875004,-0.22768725553923916,0.001314,False,,False,,,,,31
1550.577,2.019521500999872,-0.848388671875,0.474609375,-0.068603515625,14.045801526717558,-9.49618320610687,10.625954198473282,1756,-327,1,0.043406982421875004,-0.22768725553923916,0.001314,False,,False,,,,,31
1550.582,2.021523064000121,-0.836669921875,0.447509765625,-0.0732421875,16.427480916030532,-10.381679389312977,10.198473282442748,1684,-319,-3,0.041627197265625006,-0.2361408735268474,-0.003942,False,,False,,,,,31
1550.582,2.0235231639999256,-0.836669921875,0.447509765625,-0.0732421875,16.427480916030532,-10.381679389312977,10.198473282442748,1684,-319,-3,0.041627197265625006,-0.2361408735268474,-0.003942,False,,False,,,,,31
1550.582,2.0255266710000797,-0.836669921875,0.447509765625,-0.0732421875,16.427480916030532,-10.381679389312977,10.198473282442748,1684,-319,-3,0.041627197265625006,-0.2361408735268474,-0.003942,False,,False,,,,,31
1550.587,2.027526122999916,-0.85302734375,0.43115234375,-0.061279296875,18.259541984732824,-11.511450381679388,9.954198473282442,1608,-331,0,0.03974853515625,-0.2450970715806259,0.0,False,,False,,,,,31
1550.587,2.029527111999869,-0.85302734375,0.43115234375,-0.061279296875,18.259541984732824,-11.511450381679388,9.954198473282442,1608,-331,0,0.03974853515625,-0.2450970715806259,0.0,False,,False,,,,,31
1550.592,2.0315283780000755,-0.840087890625,0.402099609375,-0.05419921875,14.687022900763358,-11.66412213740458,10.961832061068701,1526,-370,1,0.037721557617187505,-0.25452332487303636,0.001314,False,,False,,,,,31
1550.592,2.033530292999785,-0.840087890625,0.402099609375,-0.05419921875,14.687022900763358,-11.66412213740458,10.961832061068701,1526,-370,1,0.037721557617187505,-0.25452332487303636,0.001314,False,,False,,,,,31
1550.592,2.0355335039998863,-0.840087890625,0.402099609375,-0.05419921875,14.687022900763358,-11.66412213740458,10.961832061068701,1526,-370,1,0.037721557617187505,-0.25452332487303636,0.001314,False,,False,,,,,31
1550.597,2.037533048000114,-0.8408203125,0.427001953125,-0.055908203125,14.381679389312977,-11.32824427480916,12.15267175572519,1438,-390,0,0.0355462646484375,-0.26460045515381453,0.0,False,,False,,,,,31
1550.597,2.0395344809999187,-0.8408203125,0.427001953125,-0.055908203125,14.381679389312977,-11.32824427480916,12.15267175572519,1438,-390,0,0.0355462646484375,-0.26460045515381453,0.0,False,,False,,,,,31
1550.602,2.0415355439999985,-0.823486328125,0.418212890625,-0.067626953125,14.99236641221374,-11.66412213740458,11.908396946564885,1346,-403,-1,0.0332720947265625,-0.2754704139973583,-0.001314,False,,False,,,,,31
1550.602,2.043537439999909,-0.823486328125,0.418212890625,-0.067626953125,14.99236641221374,-11.66412213740458,11.908396946564885,1346,-403,-1,0.0332720947265625,-0.2754704139973583,-0.001314,False,,False,,,,,31
1550.602,2.04554066899982,-0.823486328125,0.418212890625,-0.067626953125,14.99236641221374,-11.66412213740458,11.908396946564885,1346,-403,-1,0.0332720947265625,-0.2754704139973583,-0.001314,False,,False,,,,,31
1550.607,2.047540454999762,-0.846435546875,0.42919921875,-0.06640625,18.534351145038165,-12.366412213740457,11.633587786259541,1254,-399,-3,0.030997924804687504,-0.28709731483356166,-0.003942,False,,False,,,,,31
1550.607,2.0495413879998523,-0.846435546875,0.42919921875,-0.06640625,18.534351145038165,-12.366412213740457,11.633587786259541,1254,-399,-3,0.030997924804687504,-0.28709731483356166,-0.003942,False,,False,,,,,31
1550.612,2.0515431730000273,-0.87060546875,0.40673828125,-0.06884765625,21.832061068702288,-12.580152671755725,11.725190839694656,1163,-404,2,0.028748474121093753,-0.29924319301475727,0.002628,False,,False,,,,,31
1550.612,2.0535445689997687,-0.87060546875,0.40673828125,-0.06884765625,21.832061068702288,-12.580152671755725,11.725190839694656,1163,-404,2,0.028748474121093753,-0.29924319301475727,0.002628,False,,False,,,,,31
1550.612,2.055547798000134,-0.87060546875,0.40673828125,-0.06884765625,21.832061068702288,-12.580152671755725,11.725190839694656,1163,-404,2,0.028748474121093753,-0.29924319301475727,0.002628,False,,False,,,,,31
1550.617,2.0575470089997907,-0.868408203125,0.380126953125,-0.0712890625,20.061068702290076,-11.511450381679388,11.938931297709923,1068,-423,-1,0.026400146484375,-0.3116834055799724,-0.001314,False,,False,,,,,31
1550.617,2.0595479980001983,-0.868408203125,0.380126953125,-0.0712890625,20.061068702290076,-11.511450381679388,11.938931297709923,1068,-423,-1,0.026400146484375,-0.3116834055799724,-0.001314,False,,False,,,,,31
1550.622,2.0615495609999925,-0.889892578125,0.39697265625,-0.066650390625,20.091603053435115,-10.50381679389313,12.67175572519084,970,-438,-3,0.0239776611328125,-0.3243688619559567,-0.003942,False,,False,,,,,31
1550.622,2.063551456999903,-0.889892578125,0.39697265625,-0.066650390625,20.091603053435115,-10.50381679389313,12.67175572519084,970,-438,-3,0.0239776611328125,-0.3243688619559567,-0.003942,False,,False,,,,,31
1550.622,2.0655550199999198,-0.889892578125,0.39697265625,-0.066650390625,20.091603053435115,-10.50381679389313,12.67175572519084,970,-438,-3,0.0239776611328125,-0.3243688619559567,-0.003942,False,,False,,,,,31
1550.627,2.067554600999756,-0.876953125,0.39501953125,-0.083984375,20.610687022900763,-9.862595419847327,12.519083969465647,872,-427,-4,0.02155517578125,-0.33725491163563104,-0.005256,False,,False,,,,,31
1550.627,2.069555052999931,-0.876953125,0.39501953125,-0.083984375,20.610687022900763,-9.862595419847327,12.519083969465647,872,-427,-4,0.02155517578125,-0.33725491163563104,-0.005256,False,,False,,,,,31
1550.632,2.07155674500018,-0.904052734375,0.396240234375,-0.088623046875,26.3206106870229,-9.801526717557252,12.061068702290076,777,-409,-2,0.01920684814453125,-0.3501222176768205,-0.002628,False,,False,,,,,31
1550.632,2.0735577899999953,-0.904052734375,0.396240234375,-0.088623046875,26.3206106870229,-9.801526717557252,12.061068702290076,777,-409,-2,0.01920684814453125,-0.3501222176768205,-0.002628,False,,False,,,,,31
1550.632,2.075561260000086,-0.904052734375,0.396240234375,-0.088623046875,26.3206106870229,-9.801526717557252,12.061068702290076,777,-409,-2,0.01920684814453125,-0.3501222176768205,-0.002628,False,,False,,,,,31
1550.637,2.0775618229999964,-0.9375,0.408203125,-0.073974609375,25.923664122137403,-9.190839694656487,12.854961832061068,682,-418,-4,0.016858520507812502,-0.3626799965000318,-0.005256,False,,False,,,,,31
1550.637,2.079563533000055,-0.9375,0.408203125,-0.073974609375,25.923664122137403,-9.190839694656487,12.854961832061068,682,-418,-4,0.016858520507812502,-0.3626799965000318,-0.005256,False,,False,,,,,31
1550.642,2.0815653740000926,-0.926025390625,0.390869140625,-0.08447265625,24.366412213740457,-7.7251908396946565,13.190839694656487,586,-417,-2,0.0144854736328125,-0.3747609136307169,-0.002628,False,,False,,,,,31
1550.642,2.08356699199976,-0.926025390625,0.390869140625,-0.08447265625,24.366412213740457,-7.7251908396946565,13.190839694656487,586,-417,-2,0.0144854736328125,-0.3747609136307169,-0.002628,False,,False,,,,,31
1550.642,2.0855700179999985,-0.926025390625,0.390869140625,-0.08447265625,24.366412213740457,-7.7251908396946565,13.190839694656487,586,-417,-2,0.0144854736328125,-0.3747609136307169,-0.002628,False,,False,,,,,31
1550.647,2.087568933000057,-0.9453125,0.4296875,-0.081787109375,25.12977099236641,-6.412213740458015,13.954198473282442,489,-423,0,0.012087707519531251,-0.3863213130902181,0.0,False,,False,,,,,31
1550.647,2.0895699960001366,-0.9453125,0.4296875,-0.081787109375,25.12977099236641,-6.412213740458015,13.954198473282442,489,-423,0,0.012087707519531251,-0.3863213130902181,0.0,False,,False,,,,,31
1550.652,2.0915721139999732,-0.960693359375,0.4599609375,-0.071533203125,31.267175572519083,-6.076335877862595,13.83206106870229,399,-396,6,0.00986297607421875,-0.3972068521994651,0.007884,False,,False,,,,,31
1550.652,2.093573084000127,-0.960693359375,0.4599609375,-0.071533203125,31.267175572519083,-6.076335877862595,13.83206106870229,399,-396,6,0.00986297607421875,-0.3972068521994651,0.007884,False,,False,,,,,31
1550.652,2.0955759620001118,-0.960693359375,0.4599609375,-0.071533203125,31.267175572519083,-6.076335877862595,13.83206106870229,399,-396,6,0.00986297607421875,-0.3972068521994651,0.007884,False,,False,,,,,31
1550.657,2.097575542999948,-0.952880859375,0.439453125,-0.080078125,33.61832061068702,-6.5038167938931295,13.801526717557252,311,-383,3,0.007687683105468751,-0.40710113915819063,0.003942,False,,False,,,,,31
1550.657,2.0995838650001133,-0.952880859375,0.439453125,-0.080078125,33.61832061068702,-6.5038167938931295,13.801526717557252,311,-383,3,0.007687683105468751,-0.40710113915819063,0.003942,False,,False,,,,,31
1550.662,2.1015788909999173,-0.972412109375,0.440673828125,-0.07177734375,34.38167938931298,-6.412213740458015,14.198473282442748,226,-373,0,0.0055865478515625,-0.4157715615966327,0.0,False,,False,,,,,31
1550.662,2.1035805830001664,-0.972412109375,0.440673828125,-0.07177734375,34.38167938931298,-6.412213740458015,14.198473282442748,226,-373,0,0.0055865478515625,-0.4157715615966327,0.0,False,,False,,,,,31
1550.662,2.1055835719998868,-0.972412109375,0.440673828125,-0.07177734375,34.38167938931298,-6.412213740458015,14.198473282442748,226,-373,0,0.0055865478515625,-0.4157715615966327,0.0,False,,False,,,,,31
1550.6670000000001,2.107583782999882,-0.97509765625,0.427734375,-0.070068359375,33.6793893129771,-5.83206106870229,14.839694656488549,143,-364,0,0.0035348510742187504,-0.4231127306636221,0.0,False,,False,,,,,31
1550.6670000000001,2.1095846789999086,-0.97509765625,0.427734375,-0.070068359375,33.6793893129771,-5.83206106870229,14.839694656488549,143,-364,0,0.0035348510742187504,-0.4231127306636221,0.0,False,,False,,,,,31
1550.672,2.1115858349999144,-0.9765625,0.44921875,-0.070556640625,35.11450381679389,-5.9541984732824424,15.786259541984732,60,-359,-4,0.001483154296875,-0.4291093884012434,-0.005256,False,,False,,,,,31
1550.672,2.113587583000026,-0.9765625,0.44921875,-0.070556640625,35.11450381679389,-5.9541984732824424,15.786259541984732,60,-359,-4,0.001483154296875,-0.4291093884012434,-0.005256,False,,False,,,,,31
1550.672,2.1155919789998734,-0.9765625,0.44921875,-0.070556640625,35.11450381679389,-5.9541984732824424,15.786259541984732,60,-359,-4,0.001483154296875,-0.4291093884012434,-0.005256,False,,False,,,,,31
1550.6770000000001,2.1175902079999105,-0.98583984375,0.441650390625,-0.0634765625,37.12977099236641,-6.442748091603053,15.938931297709923,-18,-353,-3,-0.00044494628906250006,-0.4337682386944786,-0.003942,False,,False,,,,,31
1550.6770000000001,2.119594288999906,-0.98583984375,0.441650390625,-0.0634765625,37.12977099236641,-6.442748091603053,15.938931297709923,-18,-353,-3,-0.00044494628906250006,-0.4337682386944786,-0.003942,False,,False,,,,,31
1550.682,2.1215933150001547,-0.986083984375,0.4365234375,-0.07373046875,39.63358778625954,-7.358778625954198,15.511450381679388,-91,-322,-3,-0.0022494506835937502,-0.43697103402936754,-0.003942,False,,False,,,,,31
1550.682,2.1235946930000864,-0.986083984375,0.4365234375,-0.07373046875,39.63358778625954,-7.358778625954198,15.511450381679388,-91,-322,-3,-0.0022494506835937502,-0.43697103402936754,-0.003942,False,,False,,,,,31
1550.682,2.125597571000071,-0.986083984375,0.4365234375,-0.07373046875,39.63358778625954,-7.358778625954198,15.511450381679388,-91,-322,-3,-0.0022494506835937502,-0.43697103402936754,-0.003942,False,,False,,,,,31
1550.6870000000001,2.1275981700000557,-0.984375,0.42138671875,-0.0712890625,41.862595419847324,-7.450381679389313,15.236641221374045,-159,-289,2,-0.003930358886718751,-0.4385503480178812,0.002628,False,,False,,,,,31
1550.6870000000001,2.1295991590000085,-0.984375,0.42138671875,-0.0712890625,41.862595419847324,-7.450381679389313,15.236641221374045,-159,-289,2,-0.003930358886718751,-0.4385503480178812,0.002628,False,,False,,,,,31
1550.692,2.131600332999824,-1.005126953125,0.405517578125,-0.0654296875,42.778625954198475,-6.931297709923664,15.32824427480916,-221,-279,-1,-0.005462951660156251,-0.4383716282478837,-0.001314,False,,False,,,,,31
1550.692,2.1336013219997767,-1.005126953125,0.405517578125,-0.0654296875,42.778625954198475,-6.931297709923664,15.32824427480916,-221,-279,-1,-0.005462951660156251,-0.4383716282478837,-0.001314,False,,False,,,,,31
1550.692,2.135603903000174,-1.005126953125,0.405517578125,-0.0654296875,42.778625954198475,-6.931297709923664,15.32824427480916,-221,-279,-1,-0.005462951660156251,-0.4383716282478837,-0.001314,False,,False,,,,,31
1550.6970000000001,2.1376042440001584,-0.98486328125,0.4052734375,-0.077392578125,41.77099236641221,-7.419847328244274,15.14503816793893,-283,-269,-5,-0.0069955444335937506,-0.43641931822894187,-0.0065699999999999995,False,,False,,,,,31
1550.6970000000001,2.139605250999921,-0.98486328125,0.4052734375,-0.077392578125,41.77099236641221,-7.419847328244274,15.14503816793893,-283,-269,-5,-0.0069955444335937506,-0.43641931822894187,-0.0065699999999999995,False,,False,,,,,31
1550.702,2.141607758000191,-0.986083984375,0.416259765625,-0.07275390625,42.74809160305343,-7.022900763358779,15.022900763358779,-338,-245,2,-0.008355102539062501,-0.43277770803546417,0.002628,False,,False,,,,,31
1550.702,2.143609043000197,-0.986083984375,0.416259765625,-0.07275390625,42.74809160305343,-7.022900763358779,15.022900763358779,-338,-245,2,-0.008355102539062501,-0.43277770803546417,0.002628,False,,False,,,,,31
1550.702,2.145613013000002,-0.986083984375,0.416259765625,-0.07275390625,42.74809160305343,-7.022900763358779,15.022900763358779,-338,-245,2,-0.008355102539062501,-0.43277770803546417,0.002628,False,,False,,,,,31
1550.707,2.1476121320001766,-0.94384765625,0.402099609375,-0.085693359375,43.32824427480916,-5.770992366412213,14.80916030534351,-396,-251,3,-0.009788818359375001,-0.42757764628332734,0.003942,False,,False,,,,,31
1550.707,2.1496188430000984,-0.94384765625,0.402099609375,-0.085693359375,43.32824427480916,-5.770992366412213,14.80916030534351,-396,-251,3,-0.009788818359375001,-0.42757764628332734,0.003942,False,,False,,,,,31
1550.712,2.1516157940000085,-0.961181640625,0.43798828125,-0.07861328125,45.25190839694656,-5.343511450381679,14.65648854961832,-453,-241,0,-0.01119781494140625,-0.4211123992686704,0.0,False,,False,,,,,31
1550.712,2.1536165050001728,-0.961181640625,0.43798828125,-0.07861328125,45.25190839694656,-5.343511450381679,14.65648854961832,-453,-241,0,-0.01119781494140625,-0.4211123992686704,0.0,False,,False,,,,,31
1550.712,2.1556191979998403,-0.961181640625,0.43798828125,-0.07861328125,45.25190839694656,-5.343511450381679,14.65648854961832,-453,-241,0,-0.01119781494140625,-0.4211123992686704,0.0,False,,False,,,,,31
1550.717,2.1576192239999727,-0.946533203125,0.40625,-0.096435546875,48.396946564885496,-5.526717557251908,12.519083969465647,-503,-207,-5,-0.01243377685546875,-0.41357419237919013,-0.0065699999999999995,False,,False,,,,,31
1550.717,2.159620433999862,-0.946533203125,0.40625,-0.096435546875,48.396946564885496,-5.526717557251908,12.519083969465647,-503,-207,-5,-0.01243377685546875,-0.41357419237919013,-0.0065699999999999995,False,,False,,,,,31
1550.722,2.161621571000069,-0.96142578125,0.41845703125,-0.0810546875,49.404580152671755,-3.5725190839694654,12.946564885496183,-546,-190,-4,-0.013496704101562501,-0.40485301619143654,-0.005256,False,,False,,,,,31
1550.722,2.163623522999842,-0.96142578125,0.41845703125,-0.0810546875,49.404580152671755,-3.5725190839694654,12.946564885496183,-546,-190,-4,-0.013496704101562501,-0.40485301619143654,-0.005256,False,,False,,,,,31
1550.722,2.165627197000049,-0.96142578125,0.41845703125,-0.0810546875,49.404580152671755,-3.5725190839694654,12.946564885496183,-546,-190,-4,-0.013496704101562501,-0.40485301619143654,-0.005256,False,,False,,,,,31
1550.727,2.1676257230001283,-0.95263671875,0.386962890625,-0.08642578125,49.55725190839694,-5.374045801526718,11.267175572519083,-583,-161,-3,-0.01441131591796875,-0.3947843849784488,-0.003942,False,,False,,,,,31
1550.727,2.169626636999965,-0.95263671875,0.386962890625,-0.08642578125,49.55725190839694,-5.374045801526718,11.267175572519083,-583,-161,-3,-0.01441131591796875,-0.3947843849784488,-0.003942,False,,False,,,,,31
1550.732,2.1716281079998225,-0.95654296875,0.39404296875,-0.074951171875,50.25954198473282,-5.038167938931298,8.427480916030534,-614,-127,0,-0.015177612304687501,-0.3832859246028897,0.0,False,,False,,,,,31
1550.732,2.1736294110000927,-0.95654296875,0.39404296875,-0.074951171875,50.25954198473282,-5.038167938931298,8.427480916030534,-614,-127,0,-0.015177612304687501,-0.3832859246028897,0.0,False,,False,,,,,31
1550.732,2.175632991999919,-0.95654296875,0.39404296875,-0.074951171875,50.25954198473282,-5.038167938931298,8.427480916030534,-614,-127,0,-0.015177612304687501,-0.3832859246028897,0.0,False,,False,,,,,31
1550.737,2.177632666000136,-0.927978515625,0.4189453125,-0.064453125,51.75572519083969,-2.8091603053435112,10.015267175572518,-642,-118,-1,-0.0158697509765625,-0.370381006658508,-0.001314,False,,False,,,,,31
1550.737,2.179633359000036,-0.927978515625,0.4189453125,-0.064453125,51.75572519083969,-2.8091603053435112,10.015267175572518,-642,-118,-1,-0.0158697509765625,-0.370381006658508,-0.001314,False,,False,,,,,31
1550.742,2.1816354219999994,-0.897705078125,0.395263671875,-0.075439453125,49.52671755725191,-3.7862595419847325,8.82442748091603,-670,-119,-2,-0.0165618896484375,-0.35627071775529234,-0.002628,False,,False,,,,,31
1550.742,2.1836368730000686,-0.897705078125,0.395263671875,-0.075439453125,49.52671755725191,-3.7862595419847325,8.82442748091603,-670,-119,-2,-0.0165618896484375,-0.35627071775529234,-0.002628,False,,False,,,,,31
1550.742,2.1856398059999265,-0.897705078125,0.395263671875,-0.075439453125,49.52671755725191,-3.7862595419847325,8.82442748091603,-670,-119,-2,-0.0165618896484375,-0.35627071775529234,-0.002628,False,,False,,,,,31
1550.747,2.187640092000038,-0.926025390625,0.41552734375,-0.0751953125,50.38167938931298,-3.114503816793893,8.366412213740457,-698,-117,-1,-0.0172540283203125,-0.3413020111673393,-0.001314,False,,False,,,,,31
1550.747,2.189642413999991,-0.926025390625,0.41552734375,-0.0751953125,50.38167938931298,-3.114503816793893,8.366412213740457,-698,-117,-1,-0.0172540283203125,-0.3413020111673393,-0.001314,False,,False,,,,,31
1550.752,2.1916431059999013,-0.873291015625,0.41943359375,-0.075439453125,50.045801526717554,-3.480916030534351,8.82442748091603,-729,-134,0,-0.01802032470703125,-0.32588521572142753,0.0,False,,False,,,,,31
1550.752,2.193644483999833,-0.873291015625,0.41943359375,-0.075439453125,50.045801526717554,-3.480916030534351,8.82442748091603,-729,-134,0,-0.01802032470703125,-0.32588521572142753,0.0,False,,False,,,,,31
1550.752,2.195650268999998,-0.873291015625,0.41943359375,-0.075439453125,50.045801526717554,-3.480916030534351,8.82442748091603,-729,-134,0,-0.01802032470703125,-0.32588521572142753,0.0,False,,False,,,,,31
1550.757,2.1976492200001303,-0.9052734375,0.429931640625,-0.07373046875,54.351145038167935,-5.038167938931298,7.877862595419847,-755,-110,-2,-0.018663024902343752,-0.3103345324395152,-0.002628,False,,False,,,,,31
1550.757,2.1996504130001995,-0.9052734375,0.429931640625,-0.07373046875,54.351145038167935,-5.038167938931298,7.877862595419847,-755,-110,-2,-0.018663024902343752,-0.3103345324395152,-0.002628,False,,False,,,,,31
1550.762,2.2016514759998245,-0.8681640625,0.427490234375,-0.077392578125,54.01526717557252,-4.458015267175572,9.374045801526718,-783,-127,0,-0.01935516357421875,-0.29480751399837657,0.0,False,,False,,,,,31
1550.762,2.2036525939997773,-0.8681640625,0.427490234375,-0.077392578125,54.01526717557252,-4.458015267175572,9.374045801526718,-783,-127,0,-0.01935516357421875,-0.29480751399837657,0.0,False,,False,,,,,31
1550.762,2.2056556379998256,-0.8681640625,0.427490234375,-0.077392578125,54.01526717557252,-4.458015267175572,9.374045801526718,-783,-127,0,-0.01935516357421875,-0.29480751399837657,0.0,False,,False,,,,,31
1550.767,2.207658571000138,-0.878173828125,0.3935546875,-0.080078125,51.847328244274806,-4.9465648854961835,8.427480916030534,-808,-117,-2,-0.01997314453125,-0.2794536228237165,-0.002628,False,,False,,,,,31
1550.767,2.209655967999879,-0.878173828125,0.3935546875,-0.080078125,51.847328244274806,-4.9465648854961835,8.427480916030534,-808,-117,-2,-0.01997314453125,-0.2794536228237165,-0.002628,False,,False,,,,,31
1550.772,2.2116583269998955,-0.85107421875,0.437255859375,-0.08642578125,51.175572519083964,-3.2671755725190836,11.145038167938932,-836,-121,1,-0.020665283203125002,-0.2644491931936135,0.001314,False,,False,,,,,31
1550.772,2.2136590559998695,-0.85107421875,0.437255859375,-0.08642578125,51.175572519083964,-3.2671755725190836,11.145038167938932,-836,-121,1,-0.020665283203125002,-0.2644491931936135,0.001314,False,,False,,,,,31
1550.772,2.2156620999999177,-0.85107421875,0.437255859375,-0.08642578125,51.175572519083964,-3.2671755725190836,11.145038167938932,-836,-121,1,-0.020665283203125002,-0.2644491931936135,0.001314,False,,False,,,,,31
1550.777,2.217661329999828,-0.863525390625,0.412353515625,-0.0869140625,51.23664122137404,-5.404580152671755,9.49618320610687,-869,-132,2,-0.021481018066406253,-0.2500979317515178,0.002628,False,,False,,,,,31
1550.777,2.219662282000172,-0.863525390625,0.412353515625,-0.0869140625,51.23664122137404,-5.404580152671755,9.49618320610687,-869,-132,2,-0.021481018066406253,-0.2500979317515178,0.002628,False,,False,,,,,31
1550.782,2.221664604000125,-0.899658203125,0.4189453125,-0.075439453125,56.33587786259542,-7.66412213740458,8.274809160305344,-891,-89,-1,-0.02202484130859375,-0.2365372036080618,-0.001314,False,,False,,,,,31
1550.782,2.223666444000173,-0.899658203125,0.4189453125,-0.075439453125,56.33587786259542,-7.66412213740458,8.274809160305344,-891,-89,-1,-0.02202484130859375,-0.2365372036080618,-0.001314,False,,False,,,,,31
1550.782,2.2256687109997983,-0.899658203125,0.4189453125,-0.075439453125,56.33587786259542,-7.66412213740458,8.274809160305344,-891,-89,-1,-0.02202484130859375,-0.2365372036080618,-0.001314,False,,False,,,,,31
1550.787,2.2276694219999627,-0.870849609375,0.400390625,-0.0771484375,57.19083969465649,-7.786259541984733,9.068702290076336,-915,-98,-3,-0.022618103027343753,-0.22356617036568036,-0.003942,False,,False,,,,,31
1550.787,2.2296699839998837,-0.870849609375,0.400390625,-0.0771484375,57.19083969465649,-7.786259541984733,9.068702290076336,-915,-98,-3,-0.022618103027343753,-0.22356617036568036,-0.003942,False,,False,,,,,31
1550.7920000000001,2.2316721769998367,-0.924072265625,0.354736328125,-0.070556640625,57.52671755725191,-10.80916030534351,5.740458015267175,-925,-42,0,-0.02286529541015625,-0.2109007208045474,0.0,False,,False,,,,,31
1550.7920000000001,2.2336734430000433,-0.924072265625,0.354736328125,-0.070556640625,57.52671755725191,-10.80916030534351,5.740458015267175,-925,-42,0,-0.02286529541015625,-0.2109007208045474,0.0,False,,False,,,,,31
1550.7920000000001,2.2356771909999225,-0.924072265625,0.354736328125,-0.070556640625,57.52671755725191,-10.80916030534351,5.740458015267175,-925,-42,0,-0.02286529541015625,-0.2109007208045474,0.0,False,,False,,,,,31
1550.797,2.2376766620000126,-0.9140625,0.362060546875,-0.06884765625,58.83969465648855,-12.15267175572519,5.099236641221374,-922,8,0,-0.0227911376953125,-0.19797628456738772,0.0,False,,False,,,,,31
1550.797,2.239678057999754,-0.9140625,0.362060546875,-0.06884765625,58.83969465648855,-12.15267175572519,5.099236641221374,-922,8,0,-0.0227911376953125,-0.19797628456738772,0.0,False,,False,,,,,31
1550.8020000000001,2.241679621000003,-0.90087890625,0.36962890625,-0.066162109375,57.679389312977094,-13.007633587786259,5.404580152671755,-918,15,5,-0.0226922607421875,-0.18428815549595645,0.0065699999999999995,False,,False,,,,,31
1550.8020000000001,2.2436805540000933,-0.90087890625,0.36962890625,-0.066162109375,57.679389312977094,-13.007633587786259,5.404580152671755,-918,15,5,-0.0226922607421875,-0.18428815549595645,0.0065699999999999995,False,,False,,,,,31
1550.8020000000001,2.2456858760001523,-0.90087890625,0.36962890625,-0.066162109375,57.679389312977094,-13.007633587786259,5.404580152671755,-918,15,5,-0.0226922607421875,-0.18428815549595645,0.0065699999999999995,False,,False,,,,,31
1550.807,2.247684993999883,-0.894775390625,0.36572265625,-0.0654296875,54.99236641221374,-13.98473282442748,6.015267175572519,-920,-4,0,-0.02274169921875,-0.16999782759758936,0.0,False,,False,,,,,31
1550.807,2.249688648999836,-0.894775390625,0.36572265625,-0.0654296875,54.99236641221374,-13.98473282442748,6.015267175572519,-920,-4,0,-0.02274169921875,-0.16999782759758936,0.0,False,,False,,,,,31
1550.8120000000001,2.251687471999958,-0.9033203125,0.363037109375,-0.06494140625,54.44274809160305,-14.931297709923664,4.9465648854961835,-919,-4,-1,-0.022716979980468753,-0.15555361028982592,-0.001314,False,,False,,,,,31
1550.8120000000001,2.2536892009998155,-0.9033203125,0.363037109375,-0.06494140625,54.44274809160305,-14.931297709923664,4.9465648854961835,-919,-4,-1,-0.022716979980468753,-0.15555361028982592,-0.001314,False,,False,,,,,31
1550.8120000000001,2.2556920970000647,-0.9033203125,0.363037109375,-0.06494140625,54.44274809160305,-14.931297709923664,4.9465648854961835,-919,-4,-1,-0.022716979980468753,-0.15555361028982592,-0.001314,False,,False,,,,,31
1550.817,2.257692659999975,-0.901123046875,0.356689453125,-0.0732421875,54.38167938931298,-14.167938931297709,5.1603053435114505,-919,-1,1,-0.022716979980468753,-0.14120771405314503,0.001314,False,,False,,,,,31
1550.817,2.259694037999907,-0.901123046875,0.356689453125,-0.0732421875,54.38167938931298,-14.167938931297709,5.1603053435114505,-919,-1,1,-0.022716979980468753,-0.14120771405314503,0.001314,False,,False,,,,,31
1550.8220000000001,2.2616960629998175,-0.903076171875,0.354736328125,-0.085693359375,53.221374045801525,-12.946564885496183,5.343511450381679,-918,1,0,-0.0226922607421875,-0.1271161453986288,0.0,False,,False,,,,,31
1550.8220000000001,2.2636966820000453,-0.903076171875,0.354736328125,-0.085693359375,53.221374045801525,-12.946564885496183,5.343511450381679,-918,1,0,-0.0226922607421875,-0.1271161453986288,0.0,False,,False,,,,,31
1550.8220000000001,2.265700299999935,-0.903076171875,0.354736328125,-0.085693359375,53.221374045801525,-12.946564885496183,5.343511450381679,-918,1,0,-0.0226922607421875,-0.1271161453986288,0.0,False,,False,,,,,31
1550.827,2.2677007890001732,-0.90478515625,0.367919921875,-0.09423828125,51.75572519083969,-12.366412213740457,5.770992366412213,-919,4,-1,-0.022716979980468753,-0.11345954086582848,-0.001314,False,,False,,,,,31
1550.827,2.2697006660000625,-0.90478515625,0.367919921875,-0.09423828125,51.75572519083969,-12.366412213740457,5.770992366412213,-919,4,-1,-0.022716979980468753,-0.11345954086582848,-0.001314,False,,False,,,,,31
1550.832,2.2717025070001,-0.896240234375,0.390625,-0.097412109375,51.14503816793893,-12.061068702290076,6.351145038167939,-920,1,2,-0.02274169921875,-0.10041863492846335,0.002628,False,,False,,,,,31
1550.832,2.2737042359999577,-0.896240234375,0.390625,-0.097412109375,51.14503816793893,-12.061068702290076,6.351145038167939,-920,1,2,-0.02274169921875,-0.10041863492846335,0.002628,False,,False,,,,,31
1550.832,2.275709762000133,-0.896240234375,0.390625,-0.097412109375,51.14503816793893,-12.061068702290076,6.351145038167939,-920,1,2,-0.02274169921875,-0.10041863492846335,0.002628,False,,False,,,,,31
1550.837,2.2777073440001914,-0.89990234375,0.391357421875,-0.093017578125,51.69465648854962,-12.274809160305344,6.748091603053435,-920,-1,2,-0.02274169921875,-0.08810000563145386,0.002628,False,,False,,,,,31
1550.837,2.2797084250000808,-0.89990234375,0.391357421875,-0.093017578125,51.69465648854962,-12.274809160305344,6.748091603053435,-920,-1,2,-0.02274169921875,-0.08810000563145386,0.002628,False,,False,,,,,31
1550.842,2.281709894999949,-0.901123046875,0.390869140625,-0.092041015625,51.38931297709924,-12.396946564885496,7.175572519083969,-918,-1,-1,-0.0226922607421875,-0.07649288952626157,-0.001314,False,,False,,,,,31
1550.842,2.2837109209999653,-0.901123046875,0.390869140625,-0.092041015625,51.38931297709924,-12.396946564885496,7.175572519083969,-918,-1,-1,-0.0226922607421875,-0.07649288952626157,-0.001314,False,,False,,,,,31
1550.842,2.2857147979998444,-0.901123046875,0.390869140625,-0.092041015625,51.38931297709924,-12.396946564885496,7.175572519083969,-918,-1,-1,-0.0226922607421875,-0.07649288952626157,-0.001314,False,,False,,,,,31
1550.847,2.287713824000093,-0.900390625,0.381103515625,-0.093505859375,50.50381679389313,-12.854961832061068,7.419847328244274,-918,-1,3,-0.0226922607421875,-0.06559587319623786,0.003942,False,,False,,,,,31
1550.847,2.289715516999877,-0.900390625,0.381103515625,-0.093505859375,50.50381679389313,-12.854961832061068,7.419847328244274,-918,-1,3,-0.0226922607421875,-0.06559587319623786,0.003942,False,,False,,,,,31
1550.852,2.2917172460001893,-0.90185546875,0.38623046875,-0.09423828125,48.70229007633588,-13.068702290076335,8.51908396946565,-917,7,7,-0.022667541503906253,-0.055469106500656465,0.009198,False,,False,,,,,31
1550.852,2.2937304940001013,-0.90185546875,0.38623046875,-0.09423828125,48.70229007633588,-13.068702290076335,8.51908396946565,-917,7,7,-0.022667541503906253,-0.055469106500656465,0.009198,False,,False,,,,,31
1550.852,2.2957211309999366,-0.90185546875,0.38623046875,-0.09423828125,48.70229007633588,-13.068702290076335,8.51908396946565,-917,7,7,-0.022667541503906253,-0.055469106500656465,0.009198,False,,False,,,,,31
1550.857,2.2977215830001114,-0.894287109375,0.386474609375,-0.091552734375,48.732824427480914,-13.526717557251908,8.763358778625953,-918,3,4,-0.0226922607421875,-0.04616969244424493,0.005256,False,,False,,,,,31
1550.857,2.299722275000022,-0.894287109375,0.386474609375,-0.091552734375,48.732824427480914,-13.526717557251908,8.763358778625953,-918,3,4,-0.0226922607421875,-0.04616969244424493,0.005256,False,,False,,,,,31
1550.862,2.30172361599989,-0.896728515625,0.384765625,-0.093017578125,48.82442748091603,-13.923664122137405,9.068702290076336,-920,5,2,-0.02274169921875,-0.037769261067092046,0.002628,False,,False,,,,,31
1550.862,2.3037253640000017,-0.896728515625,0.384765625,-0.093017578125,48.82442748091603,-13.923664122137405,9.068702290076336,-920,5,2,-0.02274169921875,-0.037769261067092046,0.002628,False,,False,,,,,31
1550.862,2.305727740999828,-0.896728515625,0.384765625,-0.093017578125,48.82442748091603,-13.923664122137405,9.068702290076336,-920,5,2,-0.02274169921875,-0.037769261067092046,0.002628,False,,False,,,,,31
1550.867,2.3077278599998863,-0.892822265625,0.37744140625,-0.095703125,48.70229007633588,-14.198473282442748,9.435114503816793,-918,3,0,-0.0226922607421875,-0.03024313624195328,0.0,False,,False,,,,,31
1550.867,2.3097289600000295,-0.892822265625,0.37744140625,-0.095703125,48.70229007633588,-14.198473282442748,9.435114503816793,-918,3,0,-0.0226922607421875,-0.03024313624195328,0.0,False,,False,,,,,31
1550.872,2.311730095999792,-0.8876953125,0.37255859375,-0.097900390625,47.87786259541985,-14.015267175572518,10.13740458015267,-919,0,3,-0.022716979980468753,-0.023486373561688728,0.003942,False,,False,,,,,31
1550.872,2.3137314000000515,-0.8876953125,0.37255859375,-0.097900390625,47.87786259541985,-14.015267175572518,10.13740458015267,-919,0,3,-0.022716979980468753,-0.023486373561688728,0.003942,False,,False,,,,,31
1550.872,2.315733833000195,-0.8876953125,0.37255859375,-0.097900390625,47.87786259541985,-14.015267175572518,10.13740458015267,-919,0,3,-0.022716979980468753,-0.023486373561688728,0.003942,False,,False,,,,,31
1550.877,2.3177336549997563,-0.892822265625,0.364990234375,-0.099853515625,47.81679389312977,-13.862595419847327,10.290076335877862,-919,-1,6,-0.022716979980468753,-0.01748949516395385,0.007884,False,,False,,,,,31
1550.877,2.3198754009999902,-0.892822265625,0.364990234375,-0.099853515625,47.81679389312977,-13.862595419847327,10.290076335877862,-919,-1,6,-0.022716979980468753,-0.01748949516395385,0.007884,False,,False,,,,,31
1550.882,2.3218709080001645,-0.890625,0.3662109375,-0.101318359375,47.603053435114504,-13.31297709923664,10.412213740458014,-918,5,4,-0.0226922607421875,-0.012215653079193698,0.005256,False,,False,,,,,31
1550.882,2.323871489999874,-0.890625,0.3662109375,-0.101318359375,47.603053435114504,-13.31297709923664,10.412213740458014,-918,5,4,-0.0226922607421875,-0.012215653079193698,0.005256,False,,False,,,,,31
1550.887,2.325874922999901,-0.88720703125,0.363037109375,-0.101318359375,47.38931297709924,-13.221374045801527,11.022900763358779,-918,3,-4,-0.0226922607421875,-0.007587714351074155,-0.005256,False,,False,,,,,31
1550.887,2.327874096999949,-0.88720703125,0.363037109375,-0.101318359375,47.38931297709924,-13.221374045801527,11.022900763358779,-918,3,-4,-0.0226922607421875,-0.007587714351074155,-0.005256,False,,False,,,,,31
1550.887,2.329875326000092,-0.88720703125,0.363037109375,-0.101318359375,47.38931297709924,-13.221374045801527,11.022900763358779,-918,3,-4,-0.0226922607421875,-0.007587714351074155,-0.005256,False,,False,,,,,31
1550.892,2.331876536999971,-0.880859375,0.3623046875,-0.1064453125,46.83969465648855,-12.519083969465647,11.389312977099236,-917,4,-1,-0.022667541503906253,-0.0035675577421942165,-0.001314,False,,False,,,,,31
1550.892,2.3338781369998287,-0.880859375,0.3623046875,-0.1064453125,46.83969465648855,-12.519083969465647,11.389312977099236,-917,4,-1,-0.022667541503906253,-0.0035675577421942165,-0.001314,False,,False,,,,,31
1550.897,2.335880348000046,-0.881103515625,0.365234375,-0.1083984375,46.74809160305343,-12.366412213740457,11.725190839694656,-915,10,5,-0.022618103027343753,-7.86539956737979e-05,0.0065699999999999995,False,,False,,,,,31
1550.897,2.3378807439999036,-0.881103515625,0.365234375,-0.1083984375,46.74809160305343,-12.366412213740457,11.725190839694656,-915,10,5,-0.022618103027343753,-7.86539956737979e-05,0.0065699999999999995,False,,False,,,,,31
1550.897,2.339882084999772,-0.881103515625,0.365234375,-0.1083984375,46.74809160305343,-12.366412213740457,11.725190839694656,-915,10,5,-0.022618103027343753,-7.86539956737979e-05,0.0065699999999999995,False,,False,,,,,31
1550.902,2.341883462000169,-0.882568359375,0.373291015625,-0.1103515625,46.5648854961832,-12.274809160305344,12.15267175572519,-914,6,0,-0.0225933837890625,0.002950761892816814,0.0,False,,False,,,,,31
1550.902,2.3438840989997516,-0.882568359375,0.373291015625,-0.1103515625,46.5648854961832,-12.274809160305344,12.15267175572519,-914,6,0,-0.0225933837890625,0.002950761892816814,0.0,False,,False,,,,,31
1550.907,2.3458882179998,-0.8740234375,0.36962890625,-0.115478515625,46.25954198473282,-12.061068702290076,12.458015267175572,-912,10,2,-0.0225439453125,0.005551616659492431,0.002628,False,,False,,,,,31
1550.907,2.3478863360001014,-0.8740234375,0.36962890625,-0.115478515625,46.25954198473282,-12.061068702290076,12.458015267175572,-912,10,2,-0.0225439453125,0.005551616659492431,0.002628,False,,False,,,,,31
1550.907,2.3499643049999577,-0.8740234375,0.36962890625,-0.115478515625,46.25954198473282,-12.061068702290076,12.458015267175572,-912,10,2,-0.0225439453125,0.005551616659492431,0.002628,False,,False,,,,,31
1550.912,2.3519613680000475,-0.88134765625,0.370849609375,-0.114013671875,47.725190839694655,-12.396946564885496,12.458015267175572,-912,1,3,-0.0225439453125,0.007738105006348028,0.003942,False,,False,,,,,31
1550.912,2.3539624860000004,-0.88134765625,0.370849609375,-0.114013671875,47.725190839694655,-12.396946564885496,12.458015267175572,-912,1,3,-0.0225439453125,0.007738105006348028,0.003942,False,,False,,,,,31
1550.9170000000001,2.355964845000017,-0.87744140625,0.381591796875,-0.110107421875,49.12977099236641,-12.916030534351144,12.549618320610687,-911,1,2,-0.022519226074218752,0.009510208248580624,0.002628,False,,False,,,,,31
1550.9170000000001,2.357964778999758,-0.87744140625,0.381591796875,-0.110107421875,49.12977099236641,-12.916030534351144,12.549618320610687,-911,1,2,-0.022519226074218752,0.009510208248580624,0.002628,False,,False,,,,,31
1550.9170000000001,2.3599669710001763,-0.87744140625,0.381591796875,-0.110107421875,49.12977099236641,-12.916030534351144,12.549618320610687,-911,1,2,-0.022519226074218752,0.009510208248580624,0.002628,False,,False,,,,,31
1550.922,2.361968182000055,-0.87353515625,0.36279296875,-0.110107421875,48.36641221374045,-13.190839694656487,12.82442748091603,-910,4,2,-0.0224945068359375,0.010909723910448465,0.002628,False,,False,,,,,31
1550.922,2.3639695779997965,-0.87353515625,0.36279296875,-0.110107421875,48.36641221374045,-13.190839694656487,12.82442748091603,-910,4,2,-0.0224945068359375,0.010909723910448465,0.002628,False,,False,,,,,31
1550.9270000000001,2.3659734739999294,-0.89501953125,0.355224609375,-0.10791015625,48.79389312977099,-14.381679389312977,12.030534351145038,-909,7,0,-0.022469787597656252,0.011994946728208986,0.0,False,,False,,,,,31
1550.9270000000001,2.3679726669997763,-0.89501953125,0.355224609375,-0.10791015625,48.79389312977099,-14.381679389312977,12.030534351145038,-909,7,0,-0.022469787597656252,0.011994946728208986,0.0,False,,False,,,,,31
1550.9270000000001,2.3699738219997926,-0.89501953125,0.355224609375,-0.10791015625,48.79389312977099,-14.381679389312977,12.030534351145038,-909,7,0,-0.022469787597656252,0.011994946728208986,0.0,False,,False,,,,,31
1550.932,2.3719755520000945,-0.878173828125,0.35498046875,-0.109619140625,50.167938931297705,-16.366412213740457,11.84732824427481,-909,1,1,-0.022469787597656252,0.012783422976417451,0.001314,False,,False,,,,,31
1550.932,2.3739764480001213,-0.878173828125,0.35498046875,-0.109619140625,50.167938931297705,-16.366412213740457,11.84732824427481,-909,1,1,-0.022469787597656252,0.012783422976417451,0.001314,False,,False,,,,,31
1550.9370000000001,2.375980380999863,-0.889892578125,0.39306640625,-0.10693359375,50.07633587786259,-16.091603053435115,13.31297709923664,-909,-7,4,-0.022469787597656252,0.013276235918772819,0.005256,False,,False,,,,,31
1550.9370000000001,2.3779786469999635,-0.889892578125,0.39306640625,-0.10693359375,50.07633587786259,-16.091603053435115,13.31297709923664,-909,-7,4,-0.022469787597656252,0.013276235918772819,0.005256,False,,False,,,,,31
1550.9370000000001,2.379981692000001,-0.889892578125,0.39306640625,-0.10693359375,50.07633587786259,-16.091603053435115,13.31297709923664,-909,-7,4,-0.022469787597656252,0.013276235918772819,0.005256,False,,False,,,,,31
1550.942,2.3819821249999222,-0.836181640625,0.365478515625,-0.108642578125,43.63358778625954,-14.381679389312977,15.877862595419847,-906,16,3,-0.0223956298828125,0.013550195803763883,0.003942,False,,False,,,,,31
1550.942,2.3839837619998434,-0.836181640625,0.365478515625,-0.108642578125,43.63358778625954,-14.381679389312977,15.877862595419847,-906,16,3,-0.0223956298828125,0.013550195803763883,0.003942,False,,False,,,,,31
1550.9470000000001,2.385986453999976,-0.90234375,0.39111328125,-0.126220703125,44.030534351145036,-14.870229007633586,15.694656488549617,-903,4,0,-0.022321472167968752,0.013744397393018736,0.0,False,,False,,,,,31
1550.9470000000001,2.387985628000024,-0.90234375,0.39111328125,-0.126220703125,44.030534351145036,-14.870229007633586,15.694656488549617,-903,4,0,-0.022321472167968752,0.013744397393018736,0.0,False,,False,,,,,31
1550.9470000000001,2.389988024000104,-0.90234375,0.39111328125,-0.126220703125,44.030534351145036,-14.870229007633586,15.694656488549617,-903,4,0,-0.022321472167968752,0.013744397393018736,0.0,False,,False,,,,,31
1550.952,2.3919890689999193,-0.876708984375,0.4267578125,-0.141845703125,47.38931297709924,-12.946564885496183,17.068702290076335,-900,14,-2,-0.022247314453125,0.013922728580330505,-0.002628,False,,False,,,,,31
1550.952,2.3939907610001683,-0.876708984375,0.4267578125,-0.141845703125,47.38931297709924,-12.946564885496183,17.068702290076335,-900,14,-2,-0.022247314453125,0.013922728580330505,-0.002628,False,,False,,,,,31
1550.957,2.395993565000026,-0.86767578125,0.4111328125,-0.15283203125,48.76335877862595,-12.122137404580153,17.61832061068702,-898,17,0,-0.0221978759765625,0.014067284881610105,0.0,False,,False,,,,,31
1550.957,2.397993108999799,-0.86767578125,0.4111328125,-0.15283203125,48.76335877862595,-12.122137404580153,17.61832061068702,-898,17,0,-0.0221978759765625,0.014067284881610105,0.0,False,,False,,,,,31
1550.957,2.3999941349998153,-0.86767578125,0.4111328125,-0.15283203125,48.76335877862595,-12.122137404580153,17.61832061068702,-898,17,0,-0.0221978759765625,0.014067284881610105,0.0,False,,False,,,,,31
1550.962,2.4019956600000114,-0.871337890625,0.40380859375,-0.142333984375,49.37404580152671,-11.633587786259541,17.954198473282442,-895,9,0,-0.02212371826171875,0.014163566278824593,0.0,False,,False,,,,,31
1550.962,2.403996444999848,-0.871337890625,0.40380859375,-0.142333984375,49.37404580152671,-11.633587786259541,17.954198473282442,-895,9,0,-0.02212371826171875,0.014163566278824593,0.0,False,,False,,,,,31
1550.967,2.4060000640001817,-0.878662109375,0.389892578125,-0.143310546875,49.587786259541986,-10.99236641221374,18.3206106870229,-892,21,0,-0.022049560546875003,0.014235943051582399,0.0,False,,False,,,,,31
1550.967,2.4079988859998593,-0.878662109375,0.389892578125,-0.143310546875,49.587786259541986,-10.99236641221374,18.3206106870229,-892,21,0,-0.022049560546875003,0.014235943051582399,0.0,False,,False,,,,,31
1550.967,2.4100004299998545,-0.878662109375,0.389892578125,-0.143310546875,49.587786259541986,-10.99236641221374,18.3206106870229,-892,21,0,-0.022049560546875003,0.014235943051582399,0.0,False,,False,,,,,31
1550.972,2.4120015859998603,-0.884033203125,0.393798828125,-0.13916015625,50.01526717557252,-10.80916030534351,18.412213740458014,-887,20,4,-0.02192596435546875,0.014340973933893126,0.005256,False,,False,,,,,31
1550.972,2.414002556000014,-0.884033203125,0.393798828125,-0.13916015625,50.01526717557252,-10.80916030534351,18.412213740458014,-887,20,4,-0.02192596435546875,0.014340973933893126,0.005256,False,,False,,,,,31
1550.977,2.4160054150001997,-0.888427734375,0.3818359375,-0.14013671875,51.664122137404576,-11.145038167938932,17.526717557251906,-876,46,6,-0.021654052734375002,0.014650871100630179,0.007884,False,,False,,,,,31
1550.977,2.4180042919997504,-0.888427734375,0.3818359375,-0.14013671875,51.664122137404576,-11.145038167938932,17.526717557251906,-876,46,6,-0.021654052734375002,0.014650871100630179,0.007884,False,,False,,,,,31
1550.977,2.4200058549999994,-0.888427734375,0.3818359375,-0.14013671875,51.664122137404576,-11.145038167938932,17.526717557251906,-876,46,6,-0.021654052734375002,0.014650871100630179,0.007884,False,,False,,,,,31
1550.982,2.4220086589998573,-0.89697265625,0.370361328125,-0.13623046875,54.01526717557252,-12.15267175572519,16.244274809160306,-855,95,1,-0.021134948730468752,0.01555751016635473,0.001314,False,,False,,,,,31
1550.982,2.424008906999916,-0.89697265625,0.370361328125,-0.13623046875,54.01526717557252,-12.15267175572519,16.244274809160306,-855,95,1,-0.021134948730468752,0.01555751016635473,0.001314,False,,False,,,,,31
1550.987,2.426012950999848,-0.900146484375,0.37255859375,-0.124755859375,55.29770992366412,-13.251908396946565,15.96946564885496,-829,115,-3,-0.02049224853515625,0.017505652660415198,-0.003942,False,,False,,,,,31
1550.987,2.4280131059999803,-0.900146484375,0.37255859375,-0.124755859375,55.29770992366412,-13.251908396946565,15.96946564885496,-829,115,-3,-0.02049224853515625,0.017505652660415198,-0.003942,False,,False,,,,,31
1550.987,2.430014798999764,-0.900146484375,0.37255859375,-0.124755859375,55.29770992366412,-13.251908396946565,15.96946564885496,-829,115,-3,-0.02049224853515625,0.017505652660415198,-0.003942,False,,False,,,,,31
1550.992,2.4320200100000875,-0.88916015625,0.369384765625,-0.13037109375,49.52671755725191,-14.50381679389313,17.221374045801525,-808,87,-3,-0.01997314453125,0.020566076132795093,-0.003942,False,,False,,,,,31
1550.992,2.4340176840000822,-0.88916015625,0.369384765625,-0.13037109375,49.52671755725191,-14.50381679389313,17.221374045801525,-808,87,-3,-0.01997314453125,0.020566076132795093,-0.003942,False,,False,,,,,31
1550.997,2.4360205059997497,-0.92236328125,0.376953125,-0.121826171875,51.786259541984734,-16.061068702290076,15.572519083969466,-784,108,-1,-0.019379882812500002,0.024477535231456266,-0.001314,False,,False,,,,,31
1550.997,2.4380199759998504,-0.92236328125,0.376953125,-0.121826171875,51.786259541984734,-16.061068702290076,15.572519083969466,-784,108,-1,-0.019379882812500002,0.024477535231456266,-0.001314,False,,False,,,,,31
1550.997,2.440021891000015,-0.92236328125,0.376953125,-0.121826171875,51.786259541984734,-16.061068702290076,15.572519083969466,-784,108,-1,-0.019379882812500002,0.024477535231456266,-0.001314,False,,False,,,,,31
1551.002,2.4420229719999043,-0.896728515625,0.404296875,-0.10498046875,54.62595419847328,-17.709923664122137,15.725190839694656,-756,117,-7,-0.018687744140625,0.02913432671289928,-0.009198,False,,False,,,,,31
1551.002,2.444023720000132,-0.896728515625,0.404296875,-0.10498046875,54.62595419847328,-17.709923664122137,15.725190839694656,-756,117,-7,-0.018687744140625,0.02913432671289928,-0.009198,False,,False,,,,,31
1551.007,2.446027060999768,-0.8818359375,0.372314453125,-0.0966796875,55.51145038167939,-20.671755725190838,14.717557251908396,-726,132,-2,-0.017946166992187502,0.03458040066848636,-0.002628,False,,False,,,,,31
1551.007,2.4480268460001753,-0.8818359375,0.372314453125,-0.0966796875,55.51145038167939,-20.671755725190838,14.717557251908396,-726,132,-2,-0.017946166992187502,0.03458040066848636,-0.002628,False,,False,,,,,31
1551.007,2.4500286309998955,-0.8818359375,0.372314453125,-0.0966796875,55.51145038167939,-20.671755725190838,14.717557251908396,-726,132,-2,-0.017946166992187502,0.03458040066848636,-0.002628,False,,False,,,,,31
1551.012,2.452029711999785,-0.907958984375,0.371826171875,-0.0947265625,57.31297709923664,-22.99236641221374,13.83206106870229,-692,153,-5,-0.017105712890625,0.04082321214762064,-0.0065699999999999995,False,,False,,,,,31
1551.012,2.4540311639998436,-0.907958984375,0.371826171875,-0.0947265625,57.31297709923664,-22.99236641221374,13.83206106870229,-692,153,-5,-0.017105712890625,0.04082321214762064,-0.0065699999999999995,False,,False,,,,,31
1551.017,2.456034429999818,-0.892333984375,0.2939453125,-0.083740234375,51.786259541984734,-25.46564885496183,13.282442748091603,-658,146,-5,-0.0162652587890625,0.04782165017928875,-0.0065699999999999995,False,,False,,,,,31
1551.017,2.458033419000003,-0.892333984375,0.2939453125,-0.083740234375,51.786259541984734,-25.46564885496183,13.282442748091603,-658,146,-5,-0.0162652587890625,0.04782165017928875,-0.0065699999999999995,False,,False,,,,,31
1551.017,2.460034815000199,-0.892333984375,0.2939453125,-0.083740234375,51.786259541984734,-25.46564885496183,13.282442748091603,-658,146,-5,-0.0162652587890625,0.04782165017928875,-0.0065699999999999995,False,,False,,,,,31
1551.022,2.4620367669999723,-0.9609375,0.30322265625,-0.173583984375,47.41984732824427,-16.15267175572519,14.717557251908396,-621,166,-6,-0.015350646972656251,0.055476635733013924,-0.007884,False,,False,,,,,31
1551.022,2.464038106999851,-0.9609375,0.30322265625,-0.173583984375,47.41984732824427,-16.15267175572519,14.717557251908396,-621,166,-6,-0.015350646972656251,0.055476635733013924,-0.007884,False,,False,,,,,31
1551.027,2.4660411330000898,-0.898681640625,0.387451171875,-0.18994140625,44.15267175572519,-14.13740458015267,15.66412213740458,-580,191,-5,-0.014337158203125,0.06374942556336617,-0.0065699999999999995,False,,False,,,,,31
1551.027,2.468040973999905,-0.898681640625,0.387451171875,-0.18994140625,44.15267175572519,-14.13740458015267,15.66412213740458,-580,191,-5,-0.014337158203125,0.06374942556336617,-0.0065699999999999995,False,,False,,,,,31
1551.027,2.470042666000154,-0.898681640625,0.387451171875,-0.18994140625,44.15267175572519,-14.13740458015267,15.66412213740458,-580,191,-5,-0.014337158203125,0.06374942556336617,-0.0065699999999999995,False,,False,,,,,31
1551.032,2.472048524999991,-0.873779296875,0.418212890625,-0.203369140625,55.725190839694655,-14.564885496183205,14.534351145038167,-530,220,-6,-0.0131011962890625,0.07277768499154424,-0.007884,False,,False,,,,,31
1551.032,2.474045902999933,-0.873779296875,0.418212890625,-0.203369140625,55.725190839694655,-14.564885496183205,14.534351145038167,-530,220,-6,-0.0131011962890625,0.07277768499154424,-0.007884,False,,False,,,,,31
1551.037,2.476050225000108,-0.925048828125,0.411865234375,-0.159912109375,57.06870229007633,-18.106870229007633,14.748091603053435,-475,251,0,-0.01174163818359375,0.08279105590904197,0.0,False,,False,,,,,31
1551.037,2.478049046999786,-0.925048828125,0.411865234375,-0.159912109375,57.06870229007633,-18.106870229007633,14.748091603053435,-475,251,0,-0.01174163818359375,0.08279105590904197,0.0,False,,False,,,,,31
1551.037,2.480050442999982,-0.925048828125,0.411865234375,-0.159912109375,57.06870229007633,-18.106870229007633,14.748091603053435,-475,251,0,-0.01174163818359375,0.08279105590904197,0.0,False,,False,,,,,31
1551.0420000000001,2.4820525800000723,-0.906982421875,0.34814453125,-0.183349609375,57.00763358778626,-17.832061068702288,13.740458015267174,-412,278,0,-0.010184326171875,0.09396751925344234,0.0,False,,False,,,,,31
1551.0420000000001,2.484053068999856,-0.906982421875,0.34814453125,-0.183349609375,57.00763358778626,-17.832061068702288,13.740458015267174,-412,278,0,-0.010184326171875,0.09396751925344234,0.0,False,,False,,,,,31
1551.047,2.4860570390001158,-0.938720703125,0.364501953125,-0.191650390625,56.33587786259542,-15.206106870229007,14.045801526717558,-350,270,1,-0.0086517333984375,0.1063138927069609,0.001314,False,,False,,,,,31
1551.047,2.4880565089997617,-0.938720703125,0.364501953125,-0.191650390625,56.33587786259542,-15.206106870229007,14.045801526717558,-350,270,1,-0.0086517333984375,0.1063138927069609,0.001314,False,,False,,,,,31
1551.047,2.4900583499997992,-0.938720703125,0.364501953125,-0.191650390625,56.33587786259542,-15.206106870229007,14.045801526717558,-350,270,1,-0.0086517333984375,0.1063138927069609,0.001314,False,,False,,,,,31
1551.0520000000001,2.492059487000006,-0.911376953125,0.34423828125,-0.176513671875,49.6793893129771,-14.473282442748092,14.778625954198473,-291,259,2,-0.00719329833984375,0.11951455003245721,0.002628,False,,False,,,,,31
1551.0520000000001,2.4940599380001913,-0.911376953125,0.34423828125,-0.176513671875,49.6793893129771,-14.473282442748092,14.778625954198473,-291,259,2,-0.00719329833984375,0.11951455003245721,0.002628,False,,False,,,,,31
1551.057,2.4960643899999013,-0.908935546875,0.350341796875,-0.174560546875,49.80152671755725,-14.198473282442748,13.83206106870229,-232,266,1,-0.0057348632812500005,0.13311382854237008,0.001314,False,,False,,,,,31
1551.057,2.498063471000023,-0.908935546875,0.350341796875,-0.174560546875,49.80152671755725,-14.198473282442748,13.83206106870229,-232,266,1,-0.0057348632812500005,0.13311382854237008,0.001314,False,,False,,,,,31
1551.057,2.500065163999807,-0.908935546875,0.350341796875,-0.174560546875,49.80152671755725,-14.198473282442748,13.83206106870229,-232,266,1,-0.0057348632812500005,0.13311382854237008,0.001314,False,,False,,,,,31
1551.0620000000001,2.50214235500016,-0.910400390625,0.383544921875,-0.193115234375,50.900763358778626,-12.396946564885496,14.687022900763358,-176,257,0,-0.0043505859375,0.14674238612127988,0.0,False,,False,,,,,31
1551.0620000000001,2.504141084999901,-0.910400390625,0.383544921875,-0.193115234375,50.900763358778626,-12.396946564885496,14.687022900763358,-176,257,0,-0.0043505859375,0.14674238612127988,0.0,False,,False,,,,,31
1551.067,2.5061424069999703,-0.894775390625,0.36865234375,-0.202880859375,51.29770992366412,-12.213740458015266,14.748091603053435,-121,241,3,-0.00299102783203125,0.16007268712759967,0.003942,False,,False,,,,,31
1551.067,2.5081421360000604,-0.894775390625,0.36865234375,-0.202880859375,51.29770992366412,-12.213740458015266,14.748091603053435,-121,241,3,-0.00299102783203125,0.16007268712759967,0.003942,False,,False,,,,,31
1551.067,2.5101472169999397,-0.894775390625,0.36865234375,-0.202880859375,51.29770992366412,-12.213740458015266,14.748091603053435,-121,241,3,-0.00299102783203125,0.16007268712759967,0.003942,False,,False,,,,,31
1551.0720000000001,2.5121448909999344,-0.911865234375,0.349609375,-0.199462890625,48.18320610687023,-9.099236641221374,14.748091603053435,-64,242,3,-0.00158203125,0.1729064656599986,0.003942,False,,False,,,,,31
1551.0720000000001,2.5141458620000776,-0.911865234375,0.349609375,-0.199462890625,48.18320610687023,-9.099236641221374,14.748091603053435,-64,242,3,-0.00158203125,0.1729064656599986,0.003942,False,,False,,,,,31
1551.077,2.516149035000126,-0.895263671875,0.3720703125,-0.195556640625,46.65648854961832,-9.282442748091603,15.786259541984732,-7,250,-1,-0.00017303466796875,0.18519236037889306,-0.001314,False,,False,,,,,31
1551.077,2.518148265000036,-0.895263671875,0.3720703125,-0.195556640625,46.65648854961832,-9.282442748091603,15.786259541984732,-7,250,-1,-0.00017303466796875,0.18519236037889306,-0.001314,False,,False,,,,,31
1551.077,2.520150828000169,-0.895263671875,0.3720703125,-0.195556640625,46.65648854961832,-9.282442748091603,15.786259541984732,-7,250,-1,-0.00017303466796875,0.18519236037889306,-0.001314,False,,False,,,,,31
1551.082,2.5221521499997834,-0.875732421875,0.35302734375,-0.189208984375,46.19847328244275,-10.076335877862595,14.931297709923664,50,253,-2,0.0012359619140625,0.1968774045142497,-0.002628,False,,False,,,,,31
1551.082,2.524153879000096,-0.875732421875,0.35302734375,-0.189208984375,46.19847328244275,-10.076335877862595,14.931297709923664,50,253,-2,0.0012359619140625,0.1968774045142497,-0.002628,False,,False,,,,,31
1551.087,2.5261578859999645,-0.875,0.379638671875,-0.177734375,45.95419847328244,-9.98473282442748,15.755725190839694,106,241,-2,0.0026202392578125,0.20787224449086772,-0.002628,False,,False,,,,,31
1551.087,2.5281576530001075,-0.875,0.379638671875,-0.177734375,45.95419847328244,-9.98473282442748,15.755725190839694,106,241,-2,0.0026202392578125,0.20787224449086772,-0.002628,False,,False,,,,,31
1551.087,2.530158345000018,-0.875,0.379638671875,-0.177734375,45.95419847328244,-9.98473282442748,15.755725190839694,106,241,-2,0.0026202392578125,0.20787224449086772,-0.002628,False,,False,,,,,31
1551.092,2.5321600379998017,-0.868408203125,0.35107421875,-0.170654296875,42.74809160305343,-12.519083969465647,16.702290076335878,155,220,-4,0.0038314819335937503,0.2179688336003368,-0.005256,False,,False,,,,,31
1551.092,2.5341606930001035,-0.868408203125,0.35107421875,-0.170654296875,42.74809160305343,-12.519083969465647,16.702290076335878,155,220,-4,0.0038314819335937503,0.2179688336003368,-0.005256,False,,False,,,,,31
1551.097,2.5361649229998875,-0.873046875,0.4501953125,-0.167724609375,40.76335877862595,-9.954198473282442,20.427480916030532,205,227,-5,0.00506744384765625,0.22691648646166854,-0.0065699999999999995,False,,False,,,,,31
1551.097,2.5381631710001784,-0.873046875,0.4501953125,-0.167724609375,40.76335877862595,-9.954198473282442,20.427480916030532,205,227,-5,0.00506744384765625,0.22691648646166854,-0.0065699999999999995,False,,False,,,,,31
1551.097,2.5401657339998565,-0.873046875,0.4501953125,-0.167724609375,40.76335877862595,-9.954198473282442,20.427480916030532,205,227,-5,0.00506744384765625,0.22691648646166854,-0.0065699999999999995,False,,False,,,,,31
1551.102,2.5421671300000526,-0.81640625,0.46923828125,-0.20556640625,39.603053435114504,-12.274809160305344,21.832061068702288,258,232,-6,0.0063775634765625006,0.23473683869837458,-0.007884,False,,False,,,,,31
1551.102,2.544168489000185,-0.81640625,0.46923828125,-0.20556640625,39.603053435114504,-12.274809160305344,21.832061068702288,258,232,-6,0.0063775634765625006,0.23473683869837458,-0.007884,False,,False,,,,,31
1551.107,2.5461713660001806,-0.780029296875,0.450439453125,-0.150390625,42.167938931297705,-18.65648854961832,21.19083969465649,314,240,-1,0.0077618408203125,0.24167919465284454,-0.001314,False,,False,,,,,31
1551.107,2.5481780959999014,-0.780029296875,0.450439453125,-0.150390625,42.167938931297705,-18.65648854961832,21.19083969465649,314,240,-1,0.0077618408203125,0.24167919465284454,-0.001314,False,,False,,,,,31
1551.107,2.5501729359998535,-0.780029296875,0.450439453125,-0.150390625,42.167938931297705,-18.65648854961832,21.19083969465649,314,240,-1,0.0077618408203125,0.24167919465284454,-0.001314,False,,False,,,,,31
1551.112,2.5521742959999756,-0.848876953125,0.387939453125,-0.0703125,47.02290076335878,-29.374045801526716,20.27480916030534,375,273,5,0.00926971435546875,0.2480366068044031,0.0065699999999999995,False,,False,,,,,31
1551.112,2.5541759319999073,-0.848876953125,0.387939453125,-0.0703125,47.02290076335878,-29.374045801526716,20.27480916030534,375,273,5,0.00926971435546875,0.2480366068044031,0.0065699999999999995,False,,False,,,,,31
1551.117,2.5561789399998815,-0.838134765625,0.3212890625,-0.076171875,44.2442748091603,-32.0,19.114503816793892,439,284,3,0.010851745605468751,0.25409869731556844,0.003942,False,,False,,,,,31
1551.117,2.558178372999919,-0.838134765625,0.3212890625,-0.076171875,44.2442748091603,-32.0,19.114503816793892,439,284,3,0.010851745605468751,0.25409869731556844,0.003942,False,,False,,,,,31
1551.117,2.5601806390000093,-0.838134765625,0.3212890625,-0.076171875,44.2442748091603,-32.0,19.114503816793892,439,284,3,0.010851745605468751,0.25409869731556844,0.003942,False,,False,,,,,31
1551.122,2.562182238999867,-0.86181640625,0.28466796875,-0.091796875,41.12977099236641,-32.76335877862595,17.34351145038168,508,303,1,0.012557373046875,0.2601122107903017,0.001314,False,,False,,,,,31
1551.122,2.564183895000042,-0.86181640625,0.28466796875,-0.091796875,41.12977099236641,-32.76335877862595,17.34351145038168,508,303,1,0.012557373046875,0.2601122107903017,0.001314,False,,False,,,,,31
1551.127,2.5661865870001748,-0.880859375,0.326171875,-0.091796875,39.23664122137404,-33.9236641221374,17.221374045801525,579,305,0,0.01431243896484375,0.2662665159641357,0.0,False,,False,,,,,31
1551.127,2.5681858909997572,-0.880859375,0.326171875,-0.091796875,39.23664122137404,-33.9236641221374,17.221374045801525,579,305,0,0.01431243896484375,0.2662665159641357,0.0,False,,False,,,,,31
1551.127,2.5701880830001755,-0.880859375,0.326171875,-0.091796875,39.23664122137404,-33.9236641221374,17.221374045801525,579,305,0,0.01431243896484375,0.2662665159641357,0.0,False,,False,,,,,31
1551.132,2.5721893680001813,-0.888427734375,0.360107421875,-0.16357421875,38.900763358778626,-34.44274809160305,16.48854961832061,646,298,0,0.0159686279296875,0.27253905884031476,0.0,False,,False,,,,,31
1551.132,2.574191264000092,-0.888427734375,0.360107421875,-0.16357421875,38.900763358778626,-34.44274809160305,16.48854961832061,646,298,0,0.0159686279296875,0.27253905884031476,0.0,False,,False,,,,,31
1551.137,2.5761938639998334,-0.875,0.370361328125,-0.17724609375,39.05343511450381,-34.29007633587786,16.671755725190838,711,289,0,0.017575378417968752,0.27867647920768296,0.0,False,,False,,,,,31
1551.137,2.5781934450001245,-0.875,0.370361328125,-0.17724609375,39.05343511450381,-34.29007633587786,16.671755725190838,711,289,0,0.017575378417968752,0.27867647920768296,0.0,False,,False,,,,,31
1551.137,2.580195212000035,-0.875,0.370361328125,-0.17724609375,39.05343511450381,-34.29007633587786,16.671755725190838,711,289,0,0.017575378417968752,0.27867647920768296,0.0,False,,False,,,,,31
1551.142,2.5821967560000303,-0.87060546875,0.356689453125,-0.18505859375,37.099236641221374,-34.0763358778626,16.396946564885496,775,274,-4,0.01915740966796875,0.2844507209874029,-0.005256,False,,False,,,,,31
1551.142,2.5842873729998246,-0.87060546875,0.356689453125,-0.18505859375,37.099236641221374,-34.0763358778626,16.396946564885496,775,274,-4,0.01915740966796875,0.2844507209874029,-0.005256,False,,False,,,,,31
1551.147,2.58628745399983,-0.89599609375,0.3564453125,-0.1982421875,36.06106870229007,-32.6412213740458,15.389312977099236,836,275,-6,0.020665283203125002,0.2897119311668639,-0.007884,False,,False,,,,,31
1551.147,2.588291146999836,-0.89599609375,0.3564453125,-0.1982421875,36.06106870229007,-32.6412213740458,15.389312977099236,836,275,-6,0.020665283203125002,0.2897119311668639,-0.007884,False,,False,,,,,31
1551.147,2.59028956200018,-0.89599609375,0.3564453125,-0.1982421875,36.06106870229007,-32.6412213740458,15.389312977099236,836,275,-6,0.020665283203125002,0.2897119311668639,-0.007884,False,,False,,,,,31
1551.152,2.5922898650001116,-0.9072265625,0.3955078125,-0.201416015625,36.79389312977099,-32.30534351145038,14.870229007633586,900,275,-5,0.022247314453125,0.29439580282678235,-0.0065699999999999995,False,,False,,,,,31
1551.152,2.5942920580000646,-0.9072265625,0.3955078125,-0.201416015625,36.79389312977099,-32.30534351145038,14.870229007633586,900,275,-5,0.022247314453125,0.29439580282678235,-0.0065699999999999995,False,,False,,,,,31
1551.157,2.5962959909998062,-0.904296875,0.376953125,-0.202392578125,37.83206106870229,-33.221374045801525,13.099236641221374,963,286,-4,0.023804626464843753,0.29856429338927976,-0.005256,False,,False,,,,,31
1551.157,2.598295146000055,-0.904296875,0.376953125,-0.202392578125,37.83206106870229,-33.221374045801525,13.099236641221374,963,286,-4,0.023804626464843753,0.29856429338927976,-0.005256,False,,False,,,,,31
1551.157,2.6002963760001876,-0.904296875,0.376953125,-0.202392578125,37.83206106870229,-33.221374045801525,13.099236641221374,963,286,-4,0.023804626464843753,0.29856429338927976,-0.005256,False,,False,,,,,31
1551.162,2.602297457000077,-0.902587890625,0.385986328125,-0.193115234375,37.52671755725191,-33.282442748091604,12.946564885496183,1026,270,-1,0.025361938476562502,0.30225883361442124,-0.001314,False,,False,,,,,31
1551.162,2.6042986309998923,-0.902587890625,0.385986328125,-0.193115234375,37.52671755725191,-33.282442748091604,12.946564885496183,1026,270,-1,0.025361938476562502,0.30225883361442124,-0.001314,False,,False,,,,,31
1551.1670000000001,2.6063033969999196,-0.9052734375,0.39404296875,-0.188720703125,34.74809160305343,-33.099236641221374,13.190839694656487,1080,234,-1,0.026696777343750002,0.30532401910462337,-0.001314,False,,False,,,,,31
1551.1670000000001,2.608304497000063,-0.9052734375,0.39404296875,-0.188720703125,34.74809160305343,-33.099236641221374,13.190839694656487,1080,234,-1,0.026696777343750002,0.30532401910462337,-0.001314,False,,False,,,,,31
1551.1670000000001,2.610305837999931,-0.9052734375,0.39404296875,-0.188720703125,34.74809160305343,-33.099236641221374,13.190839694656487,1080,234,-1,0.026696777343750002,0.30532401910462337,-0.001314,False,,False,,,,,31
1551.172,2.612306715000159,-0.896484375,0.40087890625,-0.193115234375,33.52671755725191,-34.167938931297705,12.854961832061068,1131,215,-5,0.02795745849609375,0.3074419099810284,-0.0065699999999999995,False,,False,,,,,31
1551.172,2.614305519000027,-0.896484375,0.40087890625,-0.193115234375,33.52671755725191,-34.167938931297705,12.854961832061068,1131,215,-5,0.02795745849609375,0.3074419099810284,-0.0065699999999999995,False,,False,,,,,31
1551.1770000000001,2.616309637000086,-0.885986328125,0.428955078125,-0.185302734375,32.33587786259542,-33.46564885496183,14.076335877862595,1171,168,0,0.028946228027343753,0.30827053080012873,0.0,False,,False,,,,,31
1551.1770000000001,2.6183074040000065,-0.885986328125,0.428955078125,-0.185302734375,32.33587786259542,-33.46564885496183,14.076335877862595,1171,168,0,0.028946228027343753,0.30827053080012873,0.0,False,,False,,,,,31
1551.1770000000001,2.6203138739997485,-0.885986328125,0.428955078125,-0.185302734375,32.33587786259542,-33.46564885496183,14.076335877862595,1171,168,0,0.028946228027343753,0.30827053080012873,0.0,False,,False,,,,,31
1551.182,2.6224848970000494,-0.907470703125,0.42626953125,-0.171630859375,32.33587786259542,-35.41984732824427,13.893129770992365,1203,132,5,0.029737243652343752,0.30741692800583786,0.0065699999999999995,False,,False,,,,,31
1551.182,2.624487052999939,-0.907470703125,0.42626953125,-0.171630859375,32.33587786259542,-35.41984732824427,13.893129770992365,1203,132,5,0.029737243652343752,0.30741692800583786,0.0065699999999999995,False,,False,,,,,31
1551.1870000000001,2.6264893930001563,-0.86767578125,0.417724609375,-0.17236328125,30.076335877862594,-34.595419847328245,14.931297709923664,1227,99,3,0.030330505371093754,0.3045406879205249,0.003942,False,,False,,,,,31
1551.1870000000001,2.628486492999855,-0.86767578125,0.417724609375,-0.17236328125,30.076335877862594,-34.595419847328245,14.931297709923664,1227,99,3,0.030330505371093754,0.3045406879205249,0.003942,False,,False,,,,,31
1551.1870000000001,2.630487425999945,-0.86767578125,0.417724609375,-0.17236328125,30.076335877862594,-34.595419847328245,14.931297709923664,1227,99,3,0.030330505371093754,0.3045406879205249,0.003942,False,,False,,,,,31
1551.192,2.632488581999951,-0.901123046875,0.4013671875,-0.15380859375,31.297709923664122,-36.732824427480914,12.610687022900763,1253,116,1,0.030973205566406252,0.2996188893934999,0.001314,False,,False,,,,,31
1551.192,2.6344896810001046,-0.901123046875,0.4013671875,-0.15380859375,31.297709923664122,-36.732824427480914,12.610687022900763,1253,116,1,0.030973205566406252,0.2996188893934999,0.001314,False,,False,,,,,31
1551.1970000000001,2.6364931889997933,-0.865234375,0.40673828125,-0.13037109375,30.229007633587784,-38.44274809160305,12.732824427480915,1273,89,3,0.03146759033203125,0.29287683720279023,0.003942,False,,False,,,,,31
1551.1970000000001,2.638492640000095,-0.865234375,0.40673828125,-0.13037109375,30.229007633587784,-38.44274809160305,12.732824427480915,1273,89,3,0.03146759033203125,0.29287683720279023,0.003942,False,,False,,,,,31
1551.1970000000001,2.6404935919999843,-0.865234375,0.40673828125,-0.13037109375,30.229007633587784,-38.44274809160305,12.732824427480915,1273,89,3,0.03146759033203125,0.29287683720279023,0.003942,False,,False,,,,,31
1551.202,2.642495636000149,-0.877685546875,0.3798828125,-0.116455078125,28.244274809160306,-40.12213740458015,11.572519083969466,1289,70,5,0.031863098144531254,0.2844579017240069,0.0065699999999999995,False,,False,,,,,31
1551.202,2.644496809999964,-0.877685546875,0.3798828125,-0.116455078125,28.244274809160306,-40.12213740458015,11.572519083969466,1289,70,5,0.031863098144531254,0.2844579017240069,0.0065699999999999995,False,,False,,,,,31
1551.207,2.646501409999928,-0.89013671875,0.372314453125,-0.118408203125,28.213740458015266,-40.854961832061065,10.106870229007633,1307,80,3,0.03230804443359375,0.2745422126371114,0.003942,False,,False,,,,,31
1551.207,2.648499509999965,-0.89013671875,0.372314453125,-0.118408203125,28.213740458015266,-40.854961832061065,10.106870229007633,1307,80,3,0.03230804443359375,0.2745422126371114,0.003942,False,,False,,,,,31
1551.207,2.6505011469998863,-0.89013671875,0.372314453125,-0.118408203125,28.213740458015266,-40.854961832061065,10.106870229007633,1307,80,3,0.03230804443359375,0.2745422126371114,0.003942,False,,False,,,,,31
1551.212,2.652505506000125,-0.8701171875,0.3828125,-0.091064453125,26.931297709923662,-44.61068702290076,9.282442748091603,1323,70,0,0.03270355224609375,0.26348130468121056,0.0,False,,False,,,,,31
1551.212,2.6545040319997497,-0.8701171875,0.3828125,-0.091064453125,26.931297709923662,-44.61068702290076,9.282442748091603,1323,70,0,0.03270355224609375,0.26348130468121056,0.0,False,,False,,,,,31
1551.217,2.656509353999809,-0.864501953125,0.373291015625,-0.088623046875,23.32824427480916,-46.19847328244275,9.465648854961831,1326,11,3,0.032777709960937505,0.25135330122000205,0.003942,False,,False,,,,,31
1551.217,2.6585091940000893,-0.864501953125,0.373291015625,-0.088623046875,23.32824427480916,-46.19847328244275,9.465648854961831,1326,11,3,0.032777709960937505,0.25135330122000205,0.003942,False,,False,,,,,31
1551.217,2.660512072000074,-0.864501953125,0.373291015625,-0.088623046875,23.32824427480916,-46.19847328244275,9.465648854961831,1326,11,3,0.032777709960937505,0.25135330122000205,0.003942,False,,False,,,,,31
1551.222,2.662514301000101,-0.873779296875,0.361572265625,-0.096923828125,20.396946564885496,-47.02290076335878,8.122137404580153,1324,-15,4,0.032728271484375,0.2379167736703185,0.005256,False,,False,,,,,31
1551.222,2.6645150119998107,-0.873779296875,0.361572265625,-0.096923828125,20.396946564885496,-47.02290076335878,8.122137404580153,1324,-15,4,0.032728271484375,0.2379167736703185,0.005256,False,,False,,,,,31
1551.227,2.666522668000198,-0.886962890625,0.376953125,-0.112548828125,21.16030534351145,-47.26717557251908,6.687022900763359,1325,-2,2,0.03275299072265625,0.22322132422395108,0.002628,False,,False,,,,,31
1551.227,2.6685216380001293,-0.886962890625,0.376953125,-0.112548828125,21.16030534351145,-47.26717557251908,6.687022900763359,1325,-2,2,0.03275299072265625,0.22322132422395108,0.002628,False,,False,,,,,31
1551.227,2.6705228119999447,-0.886962890625,0.376953125,-0.112548828125,21.16030534351145,-47.26717557251908,6.687022900763359,1325,-2,2,0.03275299072265625,0.22322132422395108,0.002628,False,,False,,,,,31
1551.232,2.672525170999961,-0.884765625,0.362060546875,-0.12353515625,24.793893129770993,-48.97709923664122,4.122137404580153,1326,1,3,0.032777709960937505,0.20770272245744073,0.003942,False,,False,,,,,31
1551.232,2.6745293449998826,-0.884765625,0.362060546875,-0.12353515625,24.793893129770993,-48.97709923664122,4.122137404580153,1326,1,3,0.032777709960937505,0.20770272245744073,0.003942,False,,False,,,,,31
1551.237,2.67652888900011,-0.90087890625,0.330810546875,-0.1572265625,24.519083969465647,-46.900763358778626,3.145038167938931,1324,-3,1,0.032728271484375,0.19171980640494157,0.001314,False,,False,,,,,31
1551.237,2.678530025999862,-0.90087890625,0.330810546875,-0.1572265625,24.519083969465647,-46.900763358778626,3.145038167938931,1324,-3,1,0.032728271484375,0.19171980640494157,0.001314,False,,False,,,,,31
1551.237,2.6805316260001746,-0.90087890625,0.330810546875,-0.1572265625,24.519083969465647,-46.900763358778626,3.145038167938931,1324,-3,1,0.032728271484375,0.19171980640494157,0.001314,False,,False,,,,,31
1551.242,2.6825326889997996,-0.911865234375,0.317138671875,-0.162353515625,22.83969465648855,-45.19083969465649,2.16793893129771,1323,-8,0,0.03270355224609375,0.17549018986993856,0.0,False,,False,,,,,31
1551.242,2.684534732999964,-0.911865234375,0.317138671875,-0.162353515625,22.83969465648855,-45.19083969465649,2.16793893129771,1323,-8,0,0.03270355224609375,0.17549018986993856,0.0,False,,False,,,,,31
1551.247,2.6865366480001285,-0.924072265625,0.31005859375,-0.1689453125,21.404580152671755,-42.717557251908396,1.1908396946564885,1321,-7,0,0.03265411376953125,0.1592533441430847,0.0,False,,False,,,,,31
1551.247,2.6885356359998696,-0.924072265625,0.31005859375,-0.1689453125,21.404580152671755,-42.717557251908396,1.1908396946564885,1321,-7,0,0.03265411376953125,0.1592533441430847,0.0,False,,False,,,,,31
1551.247,2.6905371990001186,-0.924072265625,0.31005859375,-0.1689453125,21.404580152671755,-42.717557251908396,1.1908396946564885,1321,-7,0,0.03265411376953125,0.1592533441430847,0.0,False,,False,,,,,31
1551.252,2.6925378920000185,-0.906982421875,0.310302734375,-0.154052734375,20.213740458015266,-40.732824427480914,-0.030534351145038167,1320,-9,1,0.03262939453125,0.14324566500557873,0.001314,False,,False,,,,,31
1551.252,2.6945387139999184,-0.906982421875,0.310302734375,-0.154052734375,20.213740458015266,-40.732824427480914,-0.030534351145038167,1320,-9,1,0.03262939453125,0.14324566500557873,0.001314,False,,False,,,,,31
1551.257,2.696542035999755,-0.9091796875,0.30224609375,-0.153076171875,19.32824427480916,-39.603053435114504,-0.3969465648854962,1322,2,5,0.032678833007812505,0.12773335896094806,0.0065699999999999995,False,,False,,,,,31
1551.257,2.6985421360000146,-0.9091796875,0.30224609375,-0.153076171875,19.32824427480916,-39.603053435114504,-0.3969465648854962,1322,2,5,0.032678833007812505,0.12773335896094806,0.0065699999999999995,False,,False,,,,,31
1551.257,2.700543383999957,-0.9091796875,0.30224609375,-0.153076171875,19.32824427480916,-39.603053435114504,-0.3969465648854962,1322,2,5,0.032678833007812505,0.12773335896094806,0.0065699999999999995,False,,False,,,,,31
1551.262,2.7025446500001635,-0.9208984375,0.285400390625,-0.156005859375,18.442748091603054,-38.65648854961832,-1.099236641221374,1320,-6,1,0.03262939453125,0.11291420783342739,0.001314,False,,False,,,,,31
1551.262,2.7045468790001905,-0.9208984375,0.285400390625,-0.156005859375,18.442748091603054,-38.65648854961832,-1.099236641221374,1320,-6,1,0.03262939453125,0.11291420783342739,0.001314,False,,False,,,,,31
1551.267,2.706550182999763,-0.933349609375,0.295654296875,-0.155029296875,18.198473282442748,-37.587786259541986,-1.5877862595419847,1320,-4,3,0.03262939453125,0.09883631914180353,0.003942,False,,False,,,,,31
1551.267,2.7085495979999905,-0.933349609375,0.295654296875,-0.155029296875,18.198473282442748,-37.587786259541986,-1.5877862595419847,1320,-4,3,0.03262939453125,0.09883631914180353,0.003942,False,,False,,,,,31
1551.267,2.7105506980001337,-0.933349609375,0.295654296875,-0.155029296875,18.198473282442748,-37.587786259541986,-1.5877862595419847,1320,-4,3,0.03262939453125,0.09883631914180353,0.003942,False,,False,,,,,31
1551.272,2.7125524459997905,-0.935546875,0.29150390625,-0.136474609375,15.84732824427481,-37.31297709923664,-1.8931297709923662,1322,-1,1,0.032678833007812505,0.08561875436059356,0.001314,False,,False,,,,,31
1551.272,2.7145531749997645,-0.935546875,0.29150390625,-0.136474609375,15.84732824427481,-37.31297709923664,-1.8931297709923662,1322,-1,1,0.032678833007812505,0.08561875436059356,0.001314,False,,False,,,,,31
1551.277,2.716558533999887,-0.941650390625,0.289306640625,-0.136962890625,14.50381679389313,-37.404580152671755,-2.259541984732824,1322,0,0,0.032678833007812505,0.07338453637815959,0.0,False,,False,,,,,31
1551.277,2.7185570410001674,-0.941650390625,0.289306640625,-0.136962890625,14.50381679389313,-37.404580152671755,-2.259541984732824,1322,0,0,0.032678833007812505,0.07338453637815959,0.0,False,,False,,,,,31
1551.277,2.7205582709998453,-0.941650390625,0.289306640625,-0.136962890625,14.50381679389313,-37.404580152671755,-2.259541984732824,1322,0,0,0.032678833007812505,0.07338453637815959,0.0,False,,False,,,,,31
1551.282,2.722558944999946,-0.953125,0.299560546875,-0.129150390625,13.221374045801527,-37.6793893129771,-2.3206106870229006,1322,8,7,0.032678833007812505,0.06211498197360922,0.009198,False,,False,,,,,31
1551.282,2.7245600820001528,-0.953125,0.299560546875,-0.129150390625,13.221374045801527,-37.6793893129771,-2.3206106870229006,1322,8,7,0.032678833007812505,0.06211498197360922,0.009198,False,,False,,,,,31
1551.287,2.726563810999778,-0.964111328125,0.30419921875,-0.131591796875,12.549618320610687,-37.89312977099237,-2.8091603053435112,1322,7,2,0.032678833007812505,0.05178047508023238,0.002628,False,,False,,,,,31
1551.287,2.7285632439998153,-0.964111328125,0.30419921875,-0.131591796875,12.549618320610687,-37.89312977099237,-2.8091603053435112,1322,7,2,0.032678833007812505,0.05178047508023238,0.002628,False,,False,,,,,31
1551.287,2.7305633070000113,-0.964111328125,0.30419921875,-0.131591796875,12.549618320610687,-37.89312977099237,-2.8091603053435112,1322,7,2,0.032678833007812505,0.05178047508023238,0.002628,False,,False,,,,,31
1551.2920000000001,2.7325647769998795,-0.976806640625,0.333251953125,-0.12744140625,13.404580152671755,-36.18320610687023,-2.6564885496183206,1321,5,4,0.03265411376953125,0.04236058093492033,0.005256,False,,False,,,,,31
