state_time,loop_time,accel_x,accel_y,accel_z,gyro_x,gyro_y,gyro_z,motor_angle,motor_velocity,motor_current,hip_angle,hip_velocity,hip_torque_from_current,did_heel_strike,gait_phase,did_toe_off,commanded_current,commanded_position,commanded_torque,commanded_voltage,temperature
48.151,3.6768266689998654,-0.9580078125,0.2685546875,-0.05517578125,-1.3435114503816794,0.061068702290076333,0.2748091603053435,5976,-1,2,131.30859375,-0.10207793117956193,0.002628,False,,False,,,,,29
48.156,3.678968841999904,-0.953125,0.2685546875,-0.0537109375,-1.1908396946564885,0.030534351145038167,0.33587786259541985,5977,2,2,131.33056640625,-0.23296224396669687,0.002628,False,,False,,,,,30
48.156,3.680970570999989,-0.953125,0.2685546875,-0.0537109375,-1.1908396946564885,0.030534351145038167,0.33587786259541985,5977,2,2,131.33056640625,-0.23296224396669687,0.002628,False,,False,,,,,30
48.161,3.6829688010000154,-0.9599609375,0.270751953125,-0.05712890625,-1.4045801526717556,0.0916030534351145,0.15267175572519084,5977,0,5,131.33056640625,-0.3584809001273413,0.0065699999999999995,False,,False,,,,,30
48.161,3.684973918999958,-0.9599609375,0.270751953125,-0.05712890625,-1.4045801526717556,0.0916030534351145,0.15267175572519084,5977,0,5,131.33056640625,-0.3584809001273413,0.0065699999999999995,False,,False,,,,,30
48.166000000000004,3.686975000000075,-0.955322265625,0.26806640625,-0.05859375,-1.2519083969465647,0.0916030534351145,0.2748091603053435,5977,-2,3,131.33056640625,-0.4424540087626461,0.003942,False,,False,,,,,30
48.166000000000004,3.6892900979999013,-0.955322265625,0.26806640625,-0.05859375,-1.2519083969465647,0.0916030534351145,0.2748091603053435,5977,-2,3,131.33056640625,-0.4424540087626461,0.003942,False,,False,,,,,30
48.171,3.692246877999878,-0.9609375,0.267578125,-0.052490234375,-1.1908396946564885,-0.061068702290076333,0.24427480916030533,5977,-7,3,131.33056640625,-0.506345044492085,0.003942,False,,False,,,,,30
48.171,3.695025472999987,-0.9609375,0.267578125,-0.052490234375,-1.1908396946564885,-0.061068702290076333,0.24427480916030533,5977,-7,3,131.33056640625,-0.506345044492085,0.003942,False,,False,,,,,30
48.176,3.697027516999924,-0.958251953125,0.263671875,-0.0546875,-1.2519083969465647,-0.21374045801526717,0.24427480916030533,5977,-4,9,131.33056640625,-0.5524981653332632,0.011826,False,,False,,,,,29
48.176,3.6994827070000156,-0.958251953125,0.263671875,-0.0546875,-1.2519083969465647,-0.21374045801526717,0.24427480916030533,5977,-4,9,131.33056640625,-0.5524981653332632,0.011826,False,,False,,,,,29
48.181000000000004,3.7015658989998883,-0.95751953125,0.2646484375,-0.055419921875,-1.1603053435114503,0.061068702290076333,0.3053435114503817,5976,-2,8,131.30859375,-0.599048414274915,0.010512,False,,False,,,,,29
48.181000000000004,3.703859755999929,-0.95751953125,0.2646484375,-0.055419921875,-1.1603053435114503,0.061068702290076333,0.3053435114503817,5976,-2,8,131.30859375,-0.599048414274915,0.010512,False,,False,,,,,29
48.181000000000004,3.7065959619999376,-0.95751953125,0.2646484375,-0.055419921875,-1.1603053435114503,0.061068702290076333,0.3053435114503817,5976,-2,8,131.30859375,-0.599048414274915,0.010512,False,,False,,,,,29
48.181000000000004,3.708597303000033,-0.95751953125,0.2646484375,-0.055419921875,-1.1603053435114503,0.061068702290076333,0.3053435114503817,5976,-2,8,131.30859375,-0.599048414274915,0.010512,False,,False,,,,,29
48.186,3.710831030999998,-0.95458984375,0.26220703125,-0.0517578125,-1.2213740458015268,-0.12213740458015267,0.48854961832061067,5977,3,-7,131.33056640625,-0.6452567708710293,-0.009198,False,,False,,,,,29
48.191,3.7130280740000217,-0.95947265625,0.262939453125,-0.05126953125,-1.282442748091603,0.12213740458015267,0.3053435114503817,5977,-9,-4,131.33056640625,-0.6586783084752685,-0.005256,False,,False,,,,,29
48.191,3.7151053769998725,-0.95947265625,0.262939453125,-0.05126953125,-1.282442748091603,0.12213740458015267,0.3053435114503817,5977,-9,-4,131.33056640625,-0.6586783084752685,-0.005256,False,,False,,,,,29
48.196,3.7174057160000302,-0.9580078125,0.26318359375,-0.052978515625,-1.282442748091603,0.0,0.3969465648854962,5976,-2,0,131.30859375,-0.6603724812728229,0.0,False,,False,,,,,30
48.201,3.7215319879999242,-0.959228515625,0.259033203125,-0.05078125,-1.3435114503816794,0.0916030534351145,0.42748091603053434,5977,0,2,131.33056640625,-0.6681397690143575,0.002628,False,,False,,,,,30
48.201,3.7244948049999493,-0.959228515625,0.259033203125,-0.05078125,-1.3435114503816794,0.0916030534351145,0.42748091603053434,5977,0,2,131.33056640625,-0.6681397690143575,0.002628,False,,False,,,,,30
48.201,3.7264978489999976,-0.959228515625,0.259033203125,-0.05078125,-1.3435114503816794,0.0916030534351145,0.42748091603053434,5977,0,2,131.33056640625,-0.6681397690143575,0.002628,False,,False,,,,,30
48.206,3.7284975600000507,-0.9599609375,0.259765625,-0.049072265625,-1.4961832061068703,0.12213740458015267,0.48854961832061067,5978,0,11,131.3525390625,-0.6331320567985202,0.014454,False,,False,,,,,30
48.206,3.7304991230000724,-0.9599609375,0.259765625,-0.049072265625,-1.4961832061068703,0.12213740458015267,0.48854961832061067,5978,0,11,131.3525390625,-0.6331320567985202,0.014454,False,,False,,,,,30
48.211,3.732500370000025,-0.95947265625,0.26123046875,-0.055419921875,-1.648854961832061,0.061068702290076333,0.5190839694656488,5977,-5,5,131.33056640625,-0.5628210466227426,0.0065699999999999995,False,,False,,,,,30
48.211,3.734501340999941,-0.95947265625,0.26123046875,-0.055419921875,-1.648854961832061,0.061068702290076333,0.5190839694656488,5977,-5,5,131.33056640625,-0.5628210466227426,0.0065699999999999995,False,,False,,,,,30
48.211,3.7365026810000472,-0.95947265625,0.26123046875,-0.055419921875,-1.648854961832061,0.061068702290076333,0.5190839694656488,5977,-5,5,131.33056640625,-0.5628210466227426,0.0065699999999999995,False,,False,,,,,30
48.216,3.738504077000016,-0.95361328125,0.26123046875,-0.051025390625,-1.7099236641221374,0.42748091603053434,0.48854961832061067,5978,5,3,131.3525390625,-0.49580452469928565,0.003942,False,,False,,,,,30
48.216,3.740740231000018,-0.95361328125,0.26123046875,-0.051025390625,-1.7099236641221374,0.42748091603053434,0.48854961832061067,5978,5,3,131.3525390625,-0.49580452469928565,0.003942,False,,False,,,,,30
48.221000000000004,3.7427440339999976,-0.95556640625,0.259033203125,-0.04833984375,-1.648854961832061,0.33587786259541985,0.3053435114503817,5978,11,3,131.3525390625,-0.41660134529061454,0.003942,False,,False,,,,,30
48.221000000000004,3.744744485999945,-0.95556640625,0.259033203125,-0.04833984375,-1.648854961832061,0.33587786259541985,0.3053435114503817,5978,11,3,131.3525390625,-0.41660134529061454,0.003942,False,,False,,,,,30
48.221000000000004,3.7467447889998766,-0.95556640625,0.259033203125,-0.04833984375,-1.648854961832061,0.33587786259541985,0.3053435114503817,5978,11,3,131.3525390625,-0.41660134529061454,0.003942,False,,False,,,,,30
48.226,3.7487499819999357,-0.954345703125,0.259765625,-0.05078125,-1.9236641221374045,0.4580152671755725,0.42748091603053434,5978,7,0,131.3525390625,-0.32834311460830945,0.0,False,,False,,,,,30
48.226,3.7507548779999524,-0.954345703125,0.259765625,-0.05078125,-1.9236641221374045,0.4580152671755725,0.42748091603053434,5978,7,0,131.3525390625,-0.32834311460830945,0.0,False,,False,,,,,30
48.231,3.7527551619998576,-0.955078125,0.257080078125,-0.050048828125,-1.83206106870229,0.549618320610687,0.48854961832061067,5976,4,-2,131.30859375,-0.28152951174362445,-0.002628,False,,False,,,,,30
48.231,3.7547563919999902,-0.955078125,0.257080078125,-0.050048828125,-1.83206106870229,0.549618320610687,0.48854961832061067,5976,4,-2,131.30859375,-0.28152951174362445,-0.002628,False,,False,,,,,30
48.231,3.7567569359998743,-0.955078125,0.257080078125,-0.050048828125,-1.83206106870229,0.549618320610687,0.48854961832061067,5976,4,-2,131.30859375,-0.28152951174362445,-0.002628,False,,False,,,,,30
48.236000000000004,3.758758627999896,-0.9541015625,0.2626953125,-0.05224609375,-1.9541984732824427,0.549618320610687,0.183206106870229,5977,0,1,131.33056640625,-0.286006359266448,0.001314,False,,False,,,,,30
48.236000000000004,3.761131910999893,-0.9541015625,0.2626953125,-0.05224609375,-1.9541984732824427,0.549618320610687,0.183206106870229,5977,0,1,131.33056640625,-0.286006359266448,0.001314,False,,False,,,,,30
48.241,3.7631387889998678,-0.953857421875,0.25830078125,-0.052978515625,-1.7709923664122136,0.549618320610687,0.0916030534351145,5977,-11,7,131.33056640625,-0.28561099808999757,0.009198,False,,False,,,,,30
48.241,3.765135128999873,-0.953857421875,0.25830078125,-0.052978515625,-1.7709923664122136,0.549618320610687,0.0916030534351145,5977,-11,7,131.33056640625,-0.28561099808999757,0.009198,False,,False,,,,,30
48.241,3.7671395059999213,-0.953857421875,0.25830078125,-0.052978515625,-1.7709923664122136,0.549618320610687,0.0916030534351145,5977,-11,7,131.33056640625,-0.28561099808999757,0.009198,False,,False,,,,,30
48.246,3.76916603199993,-0.958251953125,0.260009765625,-0.054931640625,-2.229007633587786,0.6717557251908397,0.183206106870229,5977,10,1,131.33056640625,-0.26522684808358965,0.001314,False,,False,,,,,30
48.246,3.7720963120000306,-0.958251953125,0.260009765625,-0.054931640625,-2.229007633587786,0.6717557251908397,0.183206106870229,5977,10,1,131.33056640625,-0.26522684808358965,0.001314,False,,False,,,,,30
48.251,3.7740998369999943,-0.955078125,0.259521484375,-0.05029296875,-2.1068702290076335,0.7022900763358778,0.030534351145038167,5978,3,0,131.3525390625,-0.2284037504349904,0.0,False,,False,,,,,30
48.251,3.776099436999857,-0.955078125,0.259521484375,-0.05029296875,-2.1068702290076335,0.7022900763358778,0.030534351145038167,5978,3,0,131.3525390625,-0.2284037504349904,0.0,False,,False,,,,,30
48.256,3.7781013889998576,-0.95263671875,0.2607421875,-0.05224609375,-2.1068702290076335,0.5190839694656488,0.0,5977,0,2,131.33056640625,-0.17835171358267282,0.002628,False,,False,,,,,30
48.256,3.7801055249999536,-0.95263671875,0.2607421875,-0.05224609375,-2.1068702290076335,0.5190839694656488,0.0,5977,0,2,131.33056640625,-0.17835171358267282,0.002628,False,,False,,,,,30
48.256,3.782104254999922,-0.95263671875,0.2607421875,-0.05224609375,-2.1068702290076335,0.5190839694656488,0.0,5977,0,2,131.33056640625,-0.17835171358267282,0.002628,False,,False,,,,,30
48.261,3.7841064469998855,-0.957275390625,0.26025390625,-0.048828125,-2.0763358778625953,0.8244274809160305,0.0,5977,-6,1,131.33056640625,-0.14978092689983993,0.001314,False,,False,,,,,30
48.261,3.786106823999944,-0.957275390625,0.26025390625,-0.048828125,-2.0763358778625953,0.8244274809160305,0.0,5977,-6,1,131.33056640625,-0.14978092689983993,0.001314,False,,False,,,,,30
48.266,3.7881088869999076,-0.95703125,0.2626953125,-0.05322265625,-2.1068702290076335,0.7938931297709924,-0.21374045801526717,5977,-6,5,131.33056640625,-0.13960774586494729,0.0065699999999999995,False,,False,,,,,30
48.281,3.802358287000061,-0.95751953125,0.2705078125,-0.050048828125,-2.045801526717557,0.6717557251908397,-0.366412213740458,5977,-3,2,131.33056640625,-0.12906848619746966,0.002628,False,,False,,,,,30
48.281,3.804355386999987,-0.95751953125,0.2705078125,-0.050048828125,-2.045801526717557,0.6717557251908397,-0.366412213740458,5977,-3,2,131.33056640625,-0.12906848619746966,0.002628,False,,False,,,,,30
48.281,3.806354413000008,-0.95751953125,0.2705078125,-0.050048828125,-2.045801526717557,0.6717557251908397,-0.366412213740458,5977,-3,2,131.33056640625,-0.12906848619746966,0.002628,False,,False,,,,,30
48.286,3.808357419999993,-0.958740234375,0.272705078125,-0.050048828125,-1.9236641221374045,0.916030534351145,-0.5190839694656488,5976,0,3,131.30859375,-0.13429102417844307,0.003942,False,,False,,,,,30
48.286,3.810355927000046,-0.958740234375,0.272705078125,-0.050048828125,-1.9236641221374045,0.916030534351145,-0.5190839694656488,5976,0,3,131.30859375,-0.13429102417844307,0.003942,False,,False,,,,,30
48.291000000000004,3.8123592489998828,-0.955078125,0.271240234375,-0.04931640625,-1.9236641221374045,0.7022900763358778,-0.549618320610687,5978,3,7,131.3525390625,-0.13671779986955007,0.009198,False,,False,,,,,30
48.291000000000004,3.8143593120000787,-0.955078125,0.271240234375,-0.04931640625,-1.9236641221374045,0.7022900763358778,-0.549618320610687,5978,3,7,131.3525390625,-0.13671779986955007,0.009198,False,,False,,,,,30
48.291000000000004,3.8163605409999946,-0.955078125,0.271240234375,-0.04931640625,-1.9236641221374045,0.7022900763358778,-0.549618320610687,5978,3,7,131.3525390625,-0.13671779986955007,0.009198,False,,False,,,,,30
48.296,3.8183619740000267,-0.960693359375,0.272705078125,-0.048828125,-1.5267175572519083,0.549618320610687,-0.6106870229007634,5977,0,10,131.33056640625,-0.10493767344589834,0.013139999999999999,False,,False,,,,,30
48.296,3.8203635370000484,-0.960693359375,0.272705078125,-0.048828125,-1.5267175572519083,0.549618320610687,-0.6106870229007634,5977,0,10,131.33056640625,-0.10493767344589834,0.013139999999999999,False,,False,,,,,30
48.301,3.8223666359999697,-0.9560546875,0.269287109375,-0.049072265625,-1.4045801526717556,0.4580152671755725,-0.5190839694656488,5977,1,-1,131.33056640625,-0.07681173140091116,-0.001314,False,,False,,,,,30
48.301,3.8243666060000123,-0.9560546875,0.269287109375,-0.049072265625,-1.4045801526717556,0.4580152671755725,-0.5190839694656488,5977,1,-1,131.33056640625,-0.07681173140091116,-0.001314,False,,False,,,,,30
48.301,3.8263685770000393,-0.9560546875,0.269287109375,-0.049072265625,-1.4045801526717556,0.4580152671755725,-0.5190839694656488,5977,1,-1,131.33056640625,-0.07681173140091116,-0.001314,False,,False,,,,,30
48.306000000000004,3.8283741579998605,-0.958740234375,0.269775390625,-0.04833984375,-1.282442748091603,0.3969465648854962,-0.6106870229007634,5979,4,0,131.37451171875,-0.036236865690709726,0.0,False,,False,,,,,30
48.306000000000004,3.8303711649998604,-0.958740234375,0.269775390625,-0.04833984375,-1.282442748091603,0.3969465648854962,-0.6106870229007634,5979,4,0,131.37451171875,-0.036236865690709726,0.0,False,,False,,,,,30
48.311,3.832376856999872,-0.9599609375,0.265869140625,-0.049560546875,-1.099236641221374,0.33587786259541985,-0.549618320610687,5978,7,7,131.3525390625,0.046003398715228794,0.009198,False,,False,,,,,30
48.311,3.8343750869998985,-0.9599609375,0.265869140625,-0.049560546875,-1.099236641221374,0.33587786259541985,-0.549618320610687,5978,7,7,131.3525390625,0.046003398715228794,0.009198,False,,False,,,,,30
48.311,3.836379481999984,-0.9599609375,0.265869140625,-0.049560546875,-1.099236641221374,0.33587786259541985,-0.549618320610687,5978,7,7,131.3525390625,0.046003398715228794,0.009198,False,,False,,,,,30
48.316,3.8383853410000484,-0.958251953125,0.26904296875,-0.046630859375,-1.2213740458015268,0.24427480916030533,-0.6717557251908397,5977,0,1,131.33056640625,0.0982714078403826,0.001314,False,,False,,,,,30
48.316,3.840379607999921,-0.958251953125,0.26904296875,-0.046630859375,-1.2213740458015268,0.24427480916030533,-0.6717557251908397,5977,0,1,131.33056640625,0.0982714078403826,0.001314,False,,False,,,,,30
48.321,3.8423843739999484,-0.9599609375,0.264892578125,-0.0498046875,-1.0076335877862594,0.33587786259541985,-0.732824427480916,5978,0,0,131.3525390625,0.1087744098729714,0.0,False,,False,,,,,30
48.321,3.844382603999975,-0.9599609375,0.264892578125,-0.0498046875,-1.0076335877862594,0.33587786259541985,-0.732824427480916,5978,0,0,131.3525390625,0.1087744098729714,0.0,False,,False,,,,,30
48.321,3.8463844069999595,-0.9599609375,0.264892578125,-0.0498046875,-1.0076335877862594,0.33587786259541985,-0.732824427480916,5978,0,0,131.3525390625,0.1087744098729714,0.0,False,,False,,,,,30
48.326,3.848387783999897,-0.95458984375,0.264404296875,-0.0478515625,-1.0076335877862594,0.366412213740458,-0.8549618320610687,5977,-1,0,131.33056640625,0.11599154537966785,0.0,False,,False,,,,,30
48.326,3.850387273000024,-0.95458984375,0.264404296875,-0.0478515625,-1.0076335877862594,0.366412213740458,-0.8549618320610687,5977,-1,0,131.33056640625,0.11599154537966785,0.0,False,,False,,,,,30
48.331,3.8523912430000564,-0.95556640625,0.263916015625,-0.048828125,-1.0076335877862594,0.6106870229007634,-0.6412213740458015,5977,-3,1,131.33056640625,0.10443766846247377,0.001314,False,,False,,,,,30
48.331,3.8543924909999987,-0.95556640625,0.263916015625,-0.048828125,-1.0076335877862594,0.6106870229007634,-0.6412213740458015,5977,-3,1,131.33056640625,0.10443766846247377,0.001314,False,,False,,,,,30
48.331,3.856391756999983,-0.95556640625,0.263916015625,-0.048828125,-1.0076335877862594,0.6106870229007634,-0.6412213740458015,5977,-3,1,131.33056640625,0.10443766846247377,0.001314,False,,False,,,,,30
48.336,3.8583960979999574,-0.95361328125,0.2626953125,-0.050048828125,-0.7022900763358778,0.48854961832061067,-0.5801526717557252,5978,8,0,131.3525390625,0.09325201481321986,0.0,False,,False,,,,,29
48.336,3.860394660999873,-0.95361328125,0.2626953125,-0.050048828125,-0.7022900763358778,0.48854961832061067,-0.5801526717557252,5978,8,0,131.3525390625,0.09325201481321986,0.0,False,,False,,,,,29
48.341,3.8623981490000006,-0.954833984375,0.2587890625,-0.048828125,-0.916030534351145,0.6106870229007634,-0.549618320610687,5978,4,1,131.3525390625,0.11436785961747542,0.001314,False,,False,,,,,29
48.341,3.8643972489999214,-0.954833984375,0.2587890625,-0.048828125,-0.916030534351145,0.6106870229007634,-0.549618320610687,5978,4,1,131.3525390625,0.11436785961747542,0.001314,False,,False,,,,,29
48.341,3.867005826999957,-0.954833984375,0.2587890625,-0.048828125,-0.916030534351145,0.6106870229007634,-0.549618320610687,5978,4,1,131.3525390625,0.11436785961747542,0.001314,False,,False,,,,,29
48.346000000000004,3.8690074819999154,-0.954833984375,0.261474609375,-0.050537109375,-1.0076335877862594,0.6717557251908397,-0.5190839694656488,5978,1,0,131.3525390625,0.14630443418096947,0.0,False,,False,,,,,29
48.346000000000004,3.8710053780000635,-0.954833984375,0.261474609375,-0.050537109375,-1.0076335877862594,0.6717557251908397,-0.5190839694656488,5978,1,0,131.3525390625,0.14630443418096947,0.0,False,,False,,,,,29
48.351,3.8730090330000166,-0.956787109375,0.2568359375,-0.049560546875,-1.0381679389312977,0.5190839694656488,-0.4580152671755725,5978,3,-5,131.3525390625,0.17092167615019527,-0.0065699999999999995,False,,False,,,,,29
48.351,3.8750083180000274,-0.956787109375,0.2568359375,-0.049560546875,-1.0381679389312977,0.5190839694656488,-0.4580152671755725,5978,3,-5,131.3525390625,0.17092167615019527,-0.0065699999999999995,False,,False,,,,,29
48.351,3.877009824999959,-0.956787109375,0.2568359375,-0.049560546875,-1.0381679389312977,0.5190839694656488,-0.4580152671755725,5978,3,-5,131.3525390625,0.17092167615019527,-0.0065699999999999995,False,,False,,,,,29
48.356,3.879011943000023,-0.956787109375,0.253662109375,-0.050537109375,-0.9770992366412213,0.7633587786259541,-0.5190839694656488,5978,-1,7,131.3525390625,0.18905468393130564,0.009198,False,,False,,,,,30
48.356,3.8810127279998596,-0.956787109375,0.253662109375,-0.050537109375,-0.9770992366412213,0.7633587786259541,-0.5190839694656488,5978,-1,7,131.3525390625,0.18905468393130564,0.009198,False,,False,,,,,30
48.361000000000004,3.883015439000019,-0.957275390625,0.2568359375,-0.051513671875,-1.1603053435114503,0.7938931297709924,-0.4580152671755725,5979,10,2,131.37451171875,0.21741211450620834,0.002628,False,,False,,,,,30
48.361000000000004,3.885016854000014,-0.957275390625,0.2568359375,-0.051513671875,-1.1603053435114503,0.7938931297709924,-0.4580152671755725,5979,10,2,131.37451171875,0.21741211450620834,0.002628,False,,False,,,,,30
48.361000000000004,3.8870180090000304,-0.957275390625,0.2568359375,-0.051513671875,-1.1603053435114503,0.7938931297709924,-0.4580152671755725,5979,10,2,131.37451171875,0.21741211450620834,0.002628,False,,False,,,,,30
48.366,3.889020071999994,-0.956298828125,0.25341796875,-0.051025390625,-1.1603053435114503,0.8244274809160305,-0.3969465648854962,5979,-1,1,131.37451171875,0.26983403050515486,0.001314,False,,False,,,,,30
48.366,3.8910208560000683,-0.956298828125,0.25341796875,-0.051025390625,-1.1603053435114503,0.8244274809160305,-0.3969465648854962,5979,-1,1,131.37451171875,0.26983403050515486,0.001314,False,,False,,,,,30
48.371,3.8930243820000214,-0.959716796875,0.2568359375,-0.049072265625,-1.3129770992366412,1.0381679389312977,-0.3053435114503817,5980,3,4,131.396484375,0.34164287021142686,0.005256,False,,False,,,,,30
48.371,3.8950234819999423,-0.959716796875,0.2568359375,-0.049072265625,-1.3129770992366412,1.0381679389312977,-0.3053435114503817,5980,3,4,131.396484375,0.34164287021142686,0.005256,False,,False,,,,,30
48.371,3.8970244699999057,-0.959716796875,0.2568359375,-0.049072265625,-1.3129770992366412,1.0381679389312977,-0.3053435114503817,5980,3,4,131.396484375,0.34164287021142686,0.005256,False,,False,,,,,30
48.376,3.8990261439998903,-0.958251953125,0.255126953125,-0.05078125,-1.465648854961832,1.099236641221374,-0.366412213740458,5980,2,0,131.396484375,0.4286418117302814,0.0,False,,False,,,,,30
48.376,3.9010294659999545,-0.958251953125,0.255126953125,-0.05078125,-1.465648854961832,1.099236641221374,-0.366412213740458,5980,2,0,131.396484375,0.4286418117302814,0.0,False,,False,,,,,30
48.381,3.903031992000024,-0.957763671875,0.258544921875,-0.04833984375,-1.5267175572519083,1.1908396946564885,-0.4580152671755725,5981,2,6,131.41845703125,0.5270972979340721,0.007884,False,,False,,,,,30
48.381,3.905029925000008,-0.957763671875,0.258544921875,-0.04833984375,-1.5267175572519083,1.1908396946564885,-0.4580152671755725,5981,2,6,131.41845703125,0.5270972979340721,0.007884,False,,False,,,,,30
48.381,3.907031561999929,-0.957763671875,0.258544921875,-0.04833984375,-1.5267175572519083,1.1908396946564885,-0.4580152671755725,5981,2,6,131.41845703125,0.5270972979340721,0.007884,False,,False,,,,,30
48.386,3.9090331239999614,-0.95849609375,0.259033203125,-0.05224609375,-1.3740458015267174,1.129770992366412,-0.33587786259541985,5979,-5,1,131.37451171875,0.6018865102873895,0.001314,False,,False,,,,,30
48.386,3.911036576000015,-0.95849609375,0.259033203125,-0.05224609375,-1.3740458015267174,1.129770992366412,-0.33587786259541985,5979,-5,1,131.37451171875,0.6018865102873895,0.001314,False,,False,,,,,30
48.391,3.9130369350000365,-0.95947265625,0.259521484375,-0.047119140625,-1.4351145038167938,1.2213740458015268,-0.3969465648854962,5979,-5,0,131.37451171875,0.6080325238032267,0.0,False,,False,,,,,30
48.391,3.9150379600000633,-0.95947265625,0.259521484375,-0.047119140625,-1.4351145038167938,1.2213740458015268,-0.3969465648854962,5979,-5,0,131.37451171875,0.6080325238032267,0.0,False,,False,,,,,30
48.391,3.917039616000011,-0.95947265625,0.259521484375,-0.047119140625,-1.4351145038167938,1.2213740458015268,-0.3969465648854962,5979,-5,0,131.37451171875,0.6080325238032267,0.0,False,,False,,,,,30
48.396,3.919043567000017,-0.956787109375,0.257080078125,-0.04931640625,-1.5572519083969465,1.465648854961832,-0.549618320610687,5979,-9,1,131.37451171875,0.5725382677495366,0.001314,False,,False,,,,,30
48.396,3.921042166999996,-0.956787109375,0.257080078125,-0.04931640625,-1.5572519083969465,1.465648854961832,-0.549618320610687,5979,-9,1,131.37451171875,0.5725382677495366,0.001314,False,,False,,,,,30
48.401,3.9230453590000707,-0.962158203125,0.263671875,-0.047607421875,-1.7099236641221374,1.3740458015267174,-0.42748091603053434,5982,6,4,131.4404296875,0.5822757005974926,0.005256,False,,False,,,,,30
48.401,3.925044885000034,-0.962158203125,0.263671875,-0.047607421875,-1.7099236641221374,1.3740458015267174,-0.42748091603053434,5982,6,4,131.4404296875,0.5822757005974926,0.005256,False,,False,,,,,30
48.401,3.927048318000061,-0.962158203125,0.263671875,-0.047607421875,-1.7099236641221374,1.3740458015267174,-0.42748091603053434,5982,6,4,131.4404296875,0.5822757005974926,0.005256,False,,False,,,,,30
48.406,3.929048157999887,-0.96337890625,0.258056640625,-0.04833984375,-1.4351145038167938,1.099236641221374,-0.366412213740458,5982,2,1,131.4404296875,0.6774859877117134,0.001314,False,,False,,,,,30
48.406,3.931049814000062,-0.96337890625,0.258056640625,-0.04833984375,-1.4351145038167938,1.099236641221374,-0.366412213740458,5982,2,1,131.4404296875,0.6774859877117134,0.001314,False,,False,,,,,30
48.411,3.9330539319998934,-0.963623046875,0.26025390625,-0.0478515625,-1.5267175572519083,1.3740458015267174,-0.4580152671755725,5983,6,9,131.46240234375,0.8110421095608547,0.011826,False,,False,,,,,30
48.411,3.9350529759999517,-0.963623046875,0.26025390625,-0.0478515625,-1.5267175572519083,1.3740458015267174,-0.4580152671755725,5983,6,9,131.46240234375,0.8110421095608547,0.011826,False,,False,,,,,30
48.411,3.9370547609998994,-0.963623046875,0.26025390625,-0.0478515625,-1.5267175572519083,1.3740458015267174,-0.4580152671755725,5983,6,9,131.46240234375,0.8110421095608547,0.011826,False,,False,,,,,30
48.416000000000004,3.9390552869999738,-0.964599609375,0.259521484375,-0.048095703125,-1.7404580152671756,1.2519083969465647,-0.732824427480916,5984,7,0,131.484375,0.9588502771064478,0.0,False,,False,,,,,30
48.416000000000004,3.941059774999985,-0.964599609375,0.259521484375,-0.048095703125,-1.7404580152671756,1.2519083969465647,-0.732824427480916,5984,7,0,131.484375,0.9588502771064478,0.0,False,,False,,,,,30
48.421,3.943060560000049,-0.96142578125,0.261962890625,-0.048583984375,-1.5572519083969465,1.4961832061068703,-0.7022900763358778,5983,-1,2,131.46240234375,1.1005331467744355,0.002628,False,,False,,,,,30
48.421,3.945059196999864,-0.96142578125,0.261962890625,-0.048583984375,-1.5572519083969465,1.4961832061068703,-0.7022900763358778,5983,-1,2,131.46240234375,1.1005331467744355,0.002628,False,,False,,,,,30
48.421,3.9470604630000707,-0.96142578125,0.261962890625,-0.048583984375,-1.5572519083969465,1.4961832061068703,-0.7022900763358778,5983,-1,2,131.46240234375,1.1005331467744355,0.002628,False,,False,,,,,30
48.426,3.9490619700000025,-0.959228515625,0.267578125,-0.04541015625,-1.4351145038167938,1.5572519083969465,-0.8244274809160305,5985,4,-2,131.50634765625,1.2191199159356645,-0.002628,False,,False,,,,,30
48.426,3.9510640519999924,-0.959228515625,0.267578125,-0.04541015625,-1.4351145038167938,1.5572519083969465,-0.8244274809160305,5985,4,-2,131.50634765625,1.2191199159356645,-0.002628,False,,False,,,,,30
48.431000000000004,3.953068076999898,-0.95751953125,0.261962890625,-0.04248046875,-1.2519083969465647,1.3740458015267174,-0.7633587786259541,5987,9,-1,131.55029296875,1.3803154898775203,-0.001314,False,,False,,,,,30
48.431000000000004,3.955066472999988,-0.95751953125,0.261962890625,-0.04248046875,-1.2519083969465647,1.3740458015267174,-0.7633587786259541,5987,9,-1,131.55029296875,1.3803154898775203,-0.001314,False,,False,,,,,30
48.431000000000004,3.957067590999941,-0.95751953125,0.261962890625,-0.04248046875,-1.2519083969465647,1.3740458015267174,-0.7633587786259541,5987,9,-1,131.55029296875,1.3803154898775203,-0.001314,False,,False,,,,,30
48.436,3.9590696170000683,-0.9609375,0.2548828125,-0.044677734375,-0.9770992366412213,1.4961832061068703,-0.8549618320610687,5988,3,6,131.572265625,1.606678362431764,0.007884,False,,False,,,,,30
48.436,3.9610704389999682,-0.9609375,0.2548828125,-0.044677734375,-0.9770992366412213,1.4961832061068703,-0.8549618320610687,5988,3,6,131.572265625,1.606678362431764,0.007884,False,,False,,,,,30
48.441,3.963074760999916,-0.9638671875,0.2529296875,-0.047119140625,-0.8244274809160305,1.4351145038167938,-1.1603053435114503,5991,12,8,131.63818359375,1.8843188447214596,0.010512,False,,False,,,,,30
48.441,3.9650736379999216,-0.9638671875,0.2529296875,-0.047119140625,-0.8244274809160305,1.4351145038167938,-1.1603053435114503,5991,12,8,131.63818359375,1.8843188447214596,0.010512,False,,False,,,,,30
48.441,3.9670750159998533,-0.9638671875,0.2529296875,-0.047119140625,-0.8244274809160305,1.4351145038167938,-1.1603053435114503,5991,12,8,131.63818359375,1.8843188447214596,0.010512,False,,False,,,,,30
48.446,3.9690769669998645,-0.966796875,0.250244140625,-0.046875,-0.8244274809160305,1.3129770992366412,-1.4045801526717556,5995,20,7,131.72607421875,2.2645282697715654,0.009198,False,,False,,,,,30
48.446,3.971079492999934,-0.966796875,0.250244140625,-0.046875,-0.8244274809160305,1.3129770992366412,-1.4045801526717556,5995,20,7,131.72607421875,2.2645282697715654,0.009198,False,,False,,,,,30
48.451,3.9730824819998816,-0.970947265625,0.246826171875,-0.04931640625,-0.15267175572519084,1.0687022900763359,-1.984732824427481,6003,38,8,131.90185546875,2.8524232826626057,0.010512,False,,False,,,,,30
48.451,3.975080840999908,-0.970947265625,0.246826171875,-0.04931640625,-0.15267175572519084,1.0687022900763359,-1.984732824427481,6003,38,8,131.90185546875,2.8524232826626057,0.010512,False,,False,,,,,30
48.451,3.9770829960000356,-0.970947265625,0.246826171875,-0.04931640625,-0.15267175572519084,1.0687022900763359,-1.984732824427481,6003,38,8,131.90185546875,2.8524232826626057,0.010512,False,,False,,,,,30
48.456,3.9790842249999514,-0.989990234375,0.213134765625,-0.049560546875,3.4198473282442747,0.21374045801526717,-5.679389312977099,6022,85,7,132.3193359375,3.9239840368185446,0.009198,False,,False,,,,,30
48.456,3.9810869359998833,-0.989990234375,0.213134765625,-0.049560546875,3.4198473282442747,0.21374045801526717,-5.679389312977099,6022,85,7,132.3193359375,3.9239840368185446,0.009198,False,,False,,,,,30
48.461,3.9830900909998945,-1.010986328125,0.19921875,-0.050537109375,5.526717557251908,-0.15267175572519084,-7.297709923664121,6051,138,-1,132.95654296875,5.957898801217519,-0.001314,False,,False,,,,,30
48.461,3.9850896169998578,-1.010986328125,0.19921875,-0.050537109375,5.526717557251908,-0.15267175572519084,-7.297709923664121,6051,138,-1,132.95654296875,5.957898801217519,-0.001314,False,,False,,,,,30
48.461,3.9870906979999745,-1.010986328125,0.19921875,-0.050537109375,5.526717557251908,-0.15267175572519084,-7.297709923664121,6051,138,-1,132.95654296875,5.957898801217519,-0.001314,False,,False,,,,,30
48.466,3.989092482999922,-0.99853515625,0.19384765625,-0.04931640625,3.2671755725190836,-0.030534351145038167,-7.8473282442748085,6081,132,-1,133.61572265625,9.277312882021194,-0.001314,False,,False,,,,,29
48.466,3.9910946380000496,-0.99853515625,0.19384765625,-0.04931640625,3.2671755725190836,-0.030534351145038167,-7.8473282442748085,6081,132,-1,133.61572265625,9.277312882021194,-0.001314,False,,False,,,,,29
48.471000000000004,3.993098422999992,-1.0078125,0.185791015625,-0.041748046875,2.5038167938931295,-0.7938931297709924,-9.129770992366412,6120,160,-4,134.47265625,13.959063405245782,-0.005256,False,,False,,,,,29
48.471000000000004,3.9950968559999183,-1.0078125,0.185791015625,-0.041748046875,2.5038167938931295,-0.7938931297709924,-9.129770992366412,6120,160,-4,134.47265625,13.959063405245782,-0.005256,False,,False,,,,,29
48.471000000000004,3.9971015670000725,-1.0078125,0.185791015625,-0.041748046875,2.5038167938931295,-0.7938931297709924,-9.129770992366412,6120,160,-4,134.47265625,13.959063405245782,-0.005256,False,,False,,,,,29
48.476,3.999099684999919,-0.961181640625,0.239501953125,-0.04345703125,-2.045801526717557,-0.5801526717557252,-7.877862595419847,6149,124,0,135.10986328125,19.856754096946723,0.0,False,,False,,,,,30
48.476,4.001100915000052,-0.961181640625,0.239501953125,-0.04345703125,-2.045801526717557,-0.5801526717557252,-7.877862595419847,6149,124,0,135.10986328125,19.856754096946723,0.0,False,,False,,,,,30
48.481,4.0031045329999415,-0.98046875,0.268310546875,-0.036865234375,-1.1603053435114503,0.15267175572519084,-6.961832061068702,6178,122,-2,135.7470703125,26.511897838742453,-0.002628,False,,False,,,,,30
48.481,4.005103761999862,-0.98046875,0.268310546875,-0.036865234375,-1.1603053435114503,0.15267175572519084,-6.961832061068702,6178,122,-2,135.7470703125,26.511897838742453,-0.002628,False,,False,,,,,30
48.481,4.007104880000043,-0.98046875,0.268310546875,-0.036865234375,-1.1603053435114503,0.15267175572519084,-6.961832061068702,6178,122,-2,135.7470703125,26.511897838742453,-0.002628,False,,False,,,,,30
48.486000000000004,4.009107961999916,-0.94677734375,0.281005859375,-0.05517578125,-2.6564885496183206,0.8549618320610687,-5.740458015267175,6200,98,0,136.23046875,33.43419105737619,0.0,False,,False,,,,,29
48.486000000000004,4.011107634999917,-0.94677734375,0.281005859375,-0.05517578125,-2.6564885496183206,0.8549618320610687,-5.740458015267175,6200,98,0,136.23046875,33.43419105737619,0.0,False,,False,,,,,29
48.491,4.01310847600007,-0.9521484375,0.28076171875,-0.04833984375,-2.9923664122137406,0.7938931297709924,-5.984732824427481,6223,104,7,136.73583984375,40.272952846864236,0.009198,False,,False,,,,,29
48.491,4.0151104459998805,-0.9521484375,0.28076171875,-0.04833984375,-2.9923664122137406,0.7938931297709924,-5.984732824427481,6223,104,7,136.73583984375,40.272952846864236,0.009198,False,,False,,,,,29
48.491,4.01711163799996,-0.9521484375,0.28076171875,-0.04833984375,-2.9923664122137406,0.7938931297709924,-5.984732824427481,6223,104,7,136.73583984375,40.272952846864236,0.009198,False,,False,,,,,29
48.496,4.019112348999897,-0.947265625,0.274169921875,-0.05810546875,0.9770992366412213,1.9541984732824427,-6.625954198473282,6250,124,5,137.3291015625,46.92679679534199,0.0065699999999999995,False,,False,,,,,29
48.496,4.021114040999919,-0.947265625,0.274169921875,-0.05810546875,0.9770992366412213,1.9541984732824427,-6.625954198473282,6250,124,5,137.3291015625,46.92679679534199,0.0065699999999999995,False,,False,,,,,29
48.501,4.023117899999988,-0.935546875,0.26025390625,-0.04541015625,-1.0076335877862594,2.16793893129771,-6.229007633587786,6271,98,-1,137.79052734375,53.377185283595004,-0.001314,False,,False,,,,,29
48.501,4.025422591000051,-0.935546875,0.26025390625,-0.04541015625,-1.0076335877862594,2.16793893129771,-6.229007633587786,6271,98,-1,137.79052734375,53.377185283595004,-0.001314,False,,False,,,,,29
48.506,4.027420227999983,-0.948974609375,0.24609375,-0.0361328125,-0.6412213740458015,2.259541984732824,-6.778625954198473,6296,106,1,138.33984375,59.50013721231233,0.001314,False,,False,,,,,30
48.506,4.0294234569998935,-0.948974609375,0.24609375,-0.0361328125,-0.6412213740458015,2.259541984732824,-6.778625954198473,6296,106,1,138.33984375,59.50013721231233,0.001314,False,,False,,,,,30
48.506,4.031423742000015,-0.948974609375,0.24609375,-0.0361328125,-0.6412213740458015,2.259541984732824,-6.778625954198473,6296,106,1,138.33984375,59.50013721231233,0.001314,False,,False,,,,,30
48.511,4.033425416,-0.9423828125,0.251220703125,-0.048095703125,-0.12213740458015267,2.381679389312977,-6.198473282442748,6319,92,-2,138.84521484375,65.26026373416738,-0.002628,False,,False,,,,,30
48.511,4.035426293,-0.9423828125,0.251220703125,-0.048095703125,-0.12213740458015267,2.381679389312977,-6.198473282442748,6319,92,-2,138.84521484375,65.26026373416738,-0.002628,False,,False,,,,,30
48.516,4.037427929999922,-0.938232421875,0.25927734375,-0.048828125,-4.2748091603053435,2.16793893129771,-5.435114503816794,6335,75,-5,139.19677734375,70.52178495963206,-0.0065699999999999995,False,,False,,,,,30
48.516,4.039431103999959,-0.938232421875,0.25927734375,-0.048828125,-4.2748091603053435,2.16793893129771,-5.435114503816794,6335,75,-5,139.19677734375,70.52178495963206,-0.0065699999999999995,False,,False,,,,,30
48.516,4.041431814999896,-0.938232421875,0.25927734375,-0.048828125,-4.2748091603053435,2.16793893129771,-5.435114503816794,6335,75,-5,139.19677734375,70.52178495963206,-0.0065699999999999995,False,,False,,,,,30
48.521,4.04343267399986,-0.95654296875,0.25439453125,-0.055419921875,-1.1908396946564885,1.7709923664122136,-6.748091603053435,6358,107,-4,139.7021484375,75.14642042973529,-0.005256,False,,False,,,,,30
48.521,4.045434494999881,-0.95654296875,0.25439453125,-0.055419921875,-1.1908396946564885,1.7709923664122136,-6.748091603053435,6358,107,-4,139.7021484375,75.14642042973529,-0.005256,False,,False,,,,,30
48.526,4.04743600300003,-0.9580078125,0.26025390625,-0.06298828125,0.9465648854961831,1.8931297709923662,-6.687022900763359,6384,106,-11,140.2734375,79.33002693027073,-0.014454,False,,False,,,,,29
48.526,4.049439806000009,-0.9580078125,0.26025390625,-0.06298828125,0.9465648854961831,1.8931297709923662,-6.687022900763359,6384,106,-11,140.2734375,79.33002693027073,-0.014454,False,,False,,,,,29
48.526,4.051438572000052,-0.9580078125,0.26025390625,-0.06298828125,0.9465648854961831,1.8931297709923662,-6.687022900763359,6384,106,-11,140.2734375,79.33002693027073,-0.014454,False,,False,,,,,29
48.531,4.053439616999867,-0.948974609375,0.250244140625,-0.0615234375,-1.8931297709923662,1.984732824427481,-6.076335877862595,6404,99,-8,140.712890625,83.19521445666112,-0.010512,False,,False,,,,,29
48.531,4.055440976,-0.948974609375,0.250244140625,-0.0615234375,-1.8931297709923662,1.984732824427481,-6.076335877862595,6404,99,-8,140.712890625,83.19521445666112,-0.010512,False,,False,,,,,29
48.536,4.057442371999969,-0.9609375,0.261474609375,-0.046875,-3.5114503816793894,2.1374045801526718,-5.587786259541985,6422,87,-9,141.1083984375,86.56276202907787,-0.011826,False,,False,,,,,30
48.536,4.059444970999948,-0.9609375,0.261474609375,-0.046875,-3.5114503816793894,2.1374045801526718,-5.587786259541985,6422,87,-9,141.1083984375,86.56276202907787,-0.011826,False,,False,,,,,30
48.536,4.061444423000012,-0.9609375,0.261474609375,-0.046875,-3.5114503816793894,2.1374045801526718,-5.587786259541985,6422,87,-9,141.1083984375,86.56276202907787,-0.011826,False,,False,,,,,30
48.541000000000004,4.063471893000042,-0.939697265625,0.28759765625,-0.0537109375,-5.526717557251908,2.4732824427480917,-3.5114503816793894,6433,38,-6,141.35009765625,89.19434474980771,-0.007884,False,,False,,,,,30
48.541000000000004,4.065447807000055,-0.939697265625,0.28759765625,-0.0537109375,-5.526717557251908,2.4732824427480917,-3.5114503816793894,6433,38,-6,141.35009765625,89.19434474980771,-0.007884,False,,False,,,,,30
48.546,4.067448925999997,-0.92431640625,0.309814453125,-0.048828125,-9.251908396946565,2.9618320610687023,-1.5267175572519083,6433,-5,-2,141.35009765625,90.74194718269466,-0.002628,False,,False,,,,,29
48.546,4.0694523959998605,-0.92431640625,0.309814453125,-0.048828125,-9.251908396946565,2.9618320610687023,-1.5267175572519083,6433,-5,-2,141.35009765625,90.74194718269466,-0.002628,False,,False,,,,,29
48.546,4.071455087999993,-0.92431640625,0.309814453125,-0.048828125,-9.251908396946565,2.9618320610687023,-1.5267175572519083,6433,-5,-2,141.35009765625,90.74194718269466,-0.002628,False,,False,,,,,29
48.551,4.0734531139999035,-0.93115234375,0.30078125,-0.046142578125,-8.15267175572519,2.6259541984732824,-1.5877862595419847,6434,3,5,141.3720703125,90.91400492312475,0.0065699999999999995,False,,False,,,,,29
48.551,4.075454880000052,-0.93115234375,0.30078125,-0.046142578125,-8.15267175572519,2.6259541984732824,-1.5877862595419847,6434,3,5,141.3720703125,90.91400492312475,0.0065699999999999995,False,,False,,,,,29
48.556000000000004,4.07745527599991,-0.948974609375,0.286865234375,-0.06103515625,-4.366412213740458,3.297709923664122,-1.4045801526717556,6434,-4,-5,141.3720703125,89.77283340724632,-0.0065699999999999995,False,,False,,,,,29
48.556000000000004,4.079458117000058,-0.948974609375,0.286865234375,-0.06103515625,-4.366412213740458,3.297709923664122,-1.4045801526717556,6434,-4,-5,141.3720703125,89.77283340724632,-0.0065699999999999995,False,,False,,,,,29
48.556000000000004,4.081457494000006,-0.948974609375,0.286865234375,-0.06103515625,-4.366412213740458,3.297709923664122,-1.4045801526717556,6434,-4,-5,141.3720703125,89.77283340724632,-0.0065699999999999995,False,,False,,,,,29
48.561,4.083459575000006,-0.9521484375,0.263427734375,-0.058349609375,-4.7328244274809155,3.6946564885496183,-1.4045801526717556,6433,3,-1,141.35009765625,87.5169511080417,-0.001314,False,,False,,,,,29
48.561,4.085460692999959,-0.9521484375,0.263427734375,-0.058349609375,-4.7328244274809155,3.6946564885496183,-1.4045801526717556,6433,3,-1,141.35009765625,87.5169511080417,-0.001314,False,,False,,,,,29
48.566,4.087461311999959,-0.955810546875,0.2568359375,-0.053955078125,-5.679389312977099,3.7251908396946565,-1.7099236641221374,6434,2,-5,141.3720703125,84.34461815087576,-0.0065699999999999995,False,,False,,,,,30
48.566,4.089464947999886,-0.955810546875,0.2568359375,-0.053955078125,-5.679389312977099,3.7251908396946565,-1.7099236641221374,6434,2,-5,141.3720703125,84.34461815087576,-0.0065699999999999995,False,,False,,,,,30
48.566,4.091465343999971,-0.955810546875,0.2568359375,-0.053955078125,-5.679389312977099,3.7251908396946565,-1.7099236641221374,6434,2,-5,141.3720703125,84.34461815087576,-0.0065699999999999995,False,,False,,,,,30
48.571,4.093466832999866,-0.9521484375,0.262451171875,-0.0498046875,-5.801526717557252,3.847328244274809,-1.8015267175572518,6434,9,5,141.3720703125,80.48283742229358,0.0065699999999999995,False,,False,,,,,30
48.571,4.095468599000014,-0.9521484375,0.262451171875,-0.0498046875,-5.801526717557252,3.847328244274809,-1.8015267175572518,6434,9,5,141.3720703125,80.48283742229358,0.0065699999999999995,False,,False,,,,,30
48.576,4.097470181000062,-0.950439453125,0.270263671875,-0.052978515625,-5.9541984732824424,3.1755725190839694,-2.015267175572519,6434,5,-6,141.3720703125,76.09980822950006,-0.007884,False,,False,,,,,29
48.576,4.099473890999889,-0.950439453125,0.270263671875,-0.052978515625,-5.9541984732824424,3.1755725190839694,-2.015267175572519,6434,5,-6,141.3720703125,76.09980822950006,-0.007884,False,,False,,,,,29
48.576,4.1014729359999365,-0.950439453125,0.270263671875,-0.052978515625,-5.9541984732824424,3.1755725190839694,-2.015267175572519,6434,5,-6,141.3720703125,76.09980822950006,-0.007884,False,,False,,,,,29
48.581,4.103475034999974,-0.955322265625,0.27099609375,-0.05322265625,-6.015267175572519,2.9618320610687023,-1.8931297709923662,6433,1,1,141.35009765625,71.31206394476133,0.001314,False,,False,,,,,29
48.581,4.105476449999969,-0.955322265625,0.27099609375,-0.05322265625,-6.015267175572519,2.9618320610687023,-1.8931297709923662,6433,1,1,141.35009765625,71.31206394476133,0.001314,False,,False,,,,,29
48.586,4.1075117719999525,-0.95654296875,0.26708984375,-0.052490234375,-5.740458015267175,2.9618320610687023,-2.0763358778625953,6434,5,2,141.3720703125,66.25485835095671,0.002628,False,,False,,,,,30
48.586,4.109482296999886,-0.95654296875,0.26708984375,-0.052490234375,-5.740458015267175,2.9618320610687023,-2.0763358778625953,6434,5,2,141.3720703125,66.25485835095671,0.002628,False,,False,,,,,30
48.586,4.111481729999923,-0.95654296875,0.26708984375,-0.052490234375,-5.740458015267175,2.9618320610687023,-2.0763358778625953,6434,5,2,141.3720703125,66.25485835095671,0.002628,False,,False,,,,,30
48.591,4.113482922999992,-0.957763671875,0.269775390625,-0.052978515625,-5.648854961832061,2.717557251908397,-2.1374045801526718,6434,0,-4,141.3720703125,61.077158230733595,-0.005256,False,,False,,,,,30
48.591,4.115485225999919,-0.957763671875,0.269775390625,-0.052978515625,-5.648854961832061,2.717557251908397,-2.1374045801526718,6434,0,-4,141.3720703125,61.077158230733595,-0.005256,False,,False,,,,,30
48.596000000000004,4.117490585000041,-0.95654296875,0.271484375,-0.051025390625,-5.404580152671755,2.351145038167939,-2.16793893129771,6433,0,-8,141.35009765625,55.85767463458224,-0.010512,False,,False,,,,,29
48.596000000000004,4.119489684999962,-0.95654296875,0.271484375,-0.051025390625,-5.404580152671755,2.351145038167939,-2.16793893129771,6433,0,-8,141.35009765625,55.85767463458224,-0.010512,False,,False,,,,,29
48.596000000000004,4.121489302999862,-0.95654296875,0.271484375,-0.051025390625,-5.404580152671755,2.351145038167939,-2.16793893129771,6433,0,-8,141.35009765625,55.85767463458224,-0.010512,False,,False,,,,,29
48.601,4.123490735999894,-0.95654296875,0.271484375,-0.052001953125,-5.526717557251908,1.984732824427481,-2.0763358778625953,6435,5,-2,141.39404296875,50.6788239080887,-0.002628,False,,False,,,,,29
48.601,4.125492131999863,-0.95654296875,0.271484375,-0.052001953125,-5.526717557251908,1.984732824427481,-2.0763358778625953,6435,5,-2,141.39404296875,50.6788239080887,-0.002628,False,,False,,,,,29
48.606,4.1274936580000485,-0.9580078125,0.267333984375,-0.05126953125,-5.679389312977099,2.198473282442748,-2.1374045801526718,6433,-1,-6,141.35009765625,45.62493045888438,-0.007884,False,,False,,,,,29
48.606,4.129496905999986,-0.9580078125,0.267333984375,-0.05126953125,-5.679389312977099,2.198473282442748,-2.1374045801526718,6433,-1,-6,141.35009765625,45.62493045888438,-0.007884,False,,False,,,,,29
48.606,4.131495912999981,-0.9580078125,0.267333984375,-0.05126953125,-5.679389312977099,2.198473282442748,-2.1374045801526718,6433,-1,-6,141.35009765625,45.62493045888438,-0.007884,False,,False,,,,,29
48.611000000000004,4.133498031000045,-0.958740234375,0.267333984375,-0.055908203125,-5.862595419847328,2.045801526717557,-1.984732824427481,6433,0,0,141.35009765625,40.70111654156637,0.0,False,,False,,,,,29
48.611000000000004,4.13549931600005,-0.958740234375,0.267333984375,-0.055908203125,-5.862595419847328,2.045801526717557,-1.984732824427481,6433,0,0,141.35009765625,40.70111654156637,0.0,False,,False,,,,,29
48.616,4.137502822999977,-0.95654296875,0.276123046875,-0.05615234375,-5.526717557251908,2.015267175572519,-2.2900763358778624,6436,4,3,141.416015625,36.00527954272146,0.003942,False,,False,,,,,30
48.616,4.139504015000057,-0.95654296875,0.276123046875,-0.05615234375,-5.526717557251908,2.015267175572519,-2.2900763358778624,6436,4,3,141.416015625,36.00527954272146,0.003942,False,,False,,,,,30
48.616,4.141504188999988,-0.95654296875,0.276123046875,-0.05615234375,-5.526717557251908,2.015267175572519,-2.2900763358778624,6436,4,3,141.416015625,36.00527954272146,0.003942,False,,False,,,,,30
48.621,4.143505714999947,-0.95703125,0.27294921875,-0.059814453125,-5.374045801526718,2.1068702290076335,-2.259541984732824,6436,7,-4,141.416015625,31.647905904129992,-0.005256,False,,False,,,,,30
48.621,4.145507444000032,-0.95703125,0.27294921875,-0.059814453125,-5.374045801526718,2.1068702290076335,-2.259541984732824,6436,7,-4,141.416015625,31.647905904129992,-0.005256,False,,False,,,,,30
48.626,4.147509876999948,-0.95947265625,0.270751953125,-0.060546875,-5.374045801526718,1.9541984732824427,-2.351145038167939,6436,3,0,141.416015625,27.589264880822515,0.0,False,,False,,,,,29
48.626,4.149510810000038,-0.95947265625,0.270751953125,-0.060546875,-5.374045801526718,1.9541984732824427,-2.351145038167939,6436,3,0,141.416015625,27.589264880822515,0.0,False,,False,,,,,29
48.626,4.151556817000028,-0.95947265625,0.270751953125,-0.060546875,-5.374045801526718,1.9541984732824427,-2.351145038167939,6436,3,0,141.416015625,27.589264880822515,0.0,False,,False,,,,,29
48.631,4.153513453999949,-0.9580078125,0.27587890625,-0.059814453125,-5.1603053435114505,1.8931297709923662,-2.4122137404580153,6437,1,0,141.43798828125,23.807682557152045,0.0,False,,False,,,,,29
48.631,4.155514090999986,-0.9580078125,0.27587890625,-0.059814453125,-5.1603053435114505,1.8931297709923662,-2.4122137404580153,6437,1,0,141.43798828125,23.807682557152045,0.0,False,,False,,,,,29
48.636,4.157515689999855,-0.957275390625,0.27587890625,-0.05810546875,-5.038167938931298,1.984732824427481,-2.4122137404580153,6437,-6,2,141.43798828125,20.328747032928693,0.002628,False,,False,,,,,30
48.636,4.1595183639999505,-0.957275390625,0.27587890625,-0.05810546875,-5.038167938931298,1.984732824427481,-2.4122137404580153,6437,-6,2,141.43798828125,20.328747032928693,0.002628,False,,False,,,,,30
48.636,4.161518833999935,-0.957275390625,0.27587890625,-0.05810546875,-5.038167938931298,1.984732824427481,-2.4122137404580153,6437,-6,2,141.43798828125,20.328747032928693,0.002628,False,,False,,,,,30
48.641,4.163520045000041,-0.9541015625,0.27490234375,-0.0556640625,-4.824427480916031,1.9236641221374045,-2.229007633587786,6439,1,0,141.48193359375,17.169495834527602,0.0,False,,False,,,,,30
48.641,4.165523533999931,-0.9541015625,0.27490234375,-0.0556640625,-4.824427480916031,1.9236641221374045,-2.229007633587786,6439,1,0,141.48193359375,17.169495834527602,0.0,False,,False,,,,,30
48.646,4.167522726000016,-0.95458984375,0.27392578125,-0.055908203125,-4.824427480916031,1.83206106870229,-2.3206106870229006,6441,5,1,141.52587890625,14.371392472348846,0.001314,False,,False,,,,,30
48.646,4.169526289000032,-0.95458984375,0.27392578125,-0.055908203125,-4.824427480916031,1.83206106870229,-2.3206106870229006,6441,5,1,141.52587890625,14.371392472348846,0.001314,False,,False,,,,,30
48.646,4.171525685000006,-0.95458984375,0.27392578125,-0.055908203125,-4.824427480916031,1.83206106870229,-2.3206106870229006,6441,5,1,141.52587890625,14.371392472348846,0.001314,False,,False,,,,,30
48.651,4.173527154999874,-0.955322265625,0.278076171875,-0.052490234375,-4.67175572519084,1.83206106870229,-2.4122137404580153,6441,-1,6,141.52587890625,11.91617080894085,0.007884,False,,False,,,,,30
48.651,4.175528865999922,-0.955322265625,0.278076171875,-0.052490234375,-4.67175572519084,1.83206106870229,-2.4122137404580153,6441,-1,6,141.52587890625,11.91617080894085,0.007884,False,,False,,,,,30
48.656,4.177533520999987,-0.9501953125,0.271240234375,-0.055419921875,-4.396946564885496,1.618320610687023,-2.351145038167939,6443,8,2,141.56982421875,9.751740350759107,0.002628,False,,False,,,,,29
48.656,4.179533675999892,-0.9501953125,0.271240234375,-0.055419921875,-4.396946564885496,1.618320610687023,-2.351145038167939,6443,8,2,141.56982421875,9.751740350759107,0.002628,False,,False,,,,,29
48.656,4.181532979999929,-0.9501953125,0.271240234375,-0.055419921875,-4.396946564885496,1.618320610687023,-2.351145038167939,6443,8,2,141.56982421875,9.751740350759107,0.002628,False,,False,,,,,29
48.661,4.183534857000041,-0.955078125,0.26904296875,-0.052734375,-4.33587786259542,1.5572519083969465,-2.351145038167939,6445,9,-4,141.61376953125,7.893941650252223,-0.005256,False,,False,,,,,29
48.661,4.1855355679999775,-0.955078125,0.26904296875,-0.052734375,-4.33587786259542,1.5572519083969465,-2.351145038167939,6445,9,-4,141.61376953125,7.893941650252223,-0.005256,False,,False,,,,,29
48.666000000000004,4.187539427000047,-0.95654296875,0.271240234375,-0.05322265625,-4.061068702290076,1.4961832061068703,-2.4427480916030535,6448,13,-3,141.6796875,6.367509629596086,-0.003942,False,,False,,,,,29
48.666000000000004,4.189539341,-0.95654296875,0.271240234375,-0.05322265625,-4.061068702290076,1.4961832061068703,-2.4427480916030535,6448,13,-3,141.6796875,6.367509629596086,-0.003942,False,,False,,,,,29
48.666000000000004,4.191539644999921,-0.95654296875,0.271240234375,-0.05322265625,-4.061068702290076,1.4961832061068703,-2.4427480916030535,6448,13,-3,141.6796875,6.367509629596086,-0.003942,False,,False,,,,,29
48.671,4.193541004000053,-0.95458984375,0.26708984375,-0.054931640625,-3.877862595419847,1.465648854961832,-2.564885496183206,6453,21,0,141.78955078125,5.204267086060284,0.0,False,,False,,,,,29
48.671,4.195542122000006,-0.95458984375,0.26708984375,-0.054931640625,-3.877862595419847,1.465648854961832,-2.564885496183206,6453,21,0,141.78955078125,5.204267086060284,0.0,False,,False,,,,,29
48.676,4.197543666000001,-0.9677734375,0.250732421875,-0.056640625,-2.259541984732824,0.9770992366412213,-4.0,6460,44,-3,141.943359375,4.473340832932469,-0.003942,False,,False,,,,,30
48.676,4.199546894999912,-0.9677734375,0.250732421875,-0.056640625,-2.259541984732824,0.9770992366412213,-4.0,6460,44,-3,141.943359375,4.473340832932469,-0.003942,False,,False,,,,,30
48.676,4.201546587999928,-0.9677734375,0.250732421875,-0.056640625,-2.259541984732824,0.9770992366412213,-4.0,6460,44,-3,141.943359375,4.473340832932469,-0.003942,False,,False,,,,,30
48.681000000000004,4.203550409999934,-0.981201171875,0.236083984375,-0.057861328125,0.0,0.4580152671755725,-5.923664122137405,6476,78,0,142.294921875,4.353664462995492,0.0,False,,False,,,,,30
48.681000000000004,4.205548824000061,-0.981201171875,0.236083984375,-0.057861328125,0.0,0.4580152671755725,-5.923664122137405,6476,78,0,142.294921875,4.353664462995492,0.0,False,,False,,,,,30
48.686,4.207550960999924,-0.99267578125,0.222412109375,-0.058349609375,1.618320610687023,0.4580152671755725,-6.809160305343511,6500,108,0,142.822265625,5.193085591042806,0.0,False,,False,,,,,29
48.686,4.209553078999988,-0.99267578125,0.222412109375,-0.058349609375,1.618320610687023,0.4580152671755725,-6.809160305343511,6500,108,0,142.822265625,5.193085591042806,0.0,False,,False,,,,,29
48.686,4.211553846000015,-0.99267578125,0.222412109375,-0.058349609375,1.618320610687023,0.4580152671755725,-6.809160305343511,6500,108,0,142.822265625,5.193085591042806,0.0,False,,False,,,,,29
48.691,4.213555927000016,-0.979736328125,0.2294921875,-0.059814453125,-0.3969465648854962,0.48854961832061067,-6.534351145038167,6522,97,0,143.3056640625,7.189343711920454,0.0,False,,False,,,,,29
48.691,4.215557063999995,-0.979736328125,0.2294921875,-0.059814453125,-0.3969465648854962,0.48854961832061067,-6.534351145038167,6522,97,0,143.3056640625,7.189343711920454,0.0,False,,False,,,,,29
48.696,4.217558478000001,-0.98974609375,0.23681640625,-0.042724609375,-1.282442748091603,0.061068702290076333,-7.32824427480916,6549,120,1,143.89892578125,10.268405625502327,0.001314,False,,False,,,,,29
48.696,4.21956342999988,-0.98974609375,0.23681640625,-0.042724609375,-1.282442748091603,0.061068702290076333,-7.32824427480916,6549,120,1,143.89892578125,10.268405625502327,0.001314,False,,False,,,,,29
48.696,4.221561269999938,-0.98974609375,0.23681640625,-0.042724609375,-1.282442748091603,0.061068702290076333,-7.32824427480916,6549,120,1,143.89892578125,10.268405625502327,0.001314,False,,False,,,,,29
48.701,4.223563110999976,-0.9677734375,0.267333984375,-0.056640625,-2.6564885496183206,0.6412213740458015,-5.526717557251908,6574,105,-5,144.4482421875,14.30485903535307,-0.0065699999999999995,False,,False,,,,,29
48.701,4.225564894999934,-0.9677734375,0.267333984375,-0.056640625,-2.6564885496183206,0.6412213740458015,-5.526717557251908,6574,105,-5,144.4482421875,14.30485903535307,-0.0065699999999999995,False,,False,,,,,29
48.706,4.227566290999903,-0.94775390625,0.279052734375,-0.051513671875,-6.961832061068702,0.7938931297709924,-3.6030534351145036,6586,53,-6,144.7119140625,18.893360933008026,-0.007884,False,,False,,,,,30
48.706,4.229571002000057,-0.94775390625,0.279052734375,-0.051513671875,-6.961832061068702,0.7938931297709924,-3.6030534351145036,6586,53,-6,144.7119140625,18.893360933008026,-0.007884,False,,False,,,,,30
48.706,4.231569621000062,-0.94775390625,0.279052734375,-0.051513671875,-6.961832061068702,0.7938931297709924,-3.6030534351145036,6586,53,-6,144.7119140625,18.893360933008026,-0.007884,False,,False,,,,,30
48.711,4.233574719999979,-0.94580078125,0.294677734375,-0.044677734375,-8.061068702290076,1.4961832061068703,-2.564885496183206,6592,23,-2,144.84375,23.33642517701365,-0.002628,False,,False,,,,,30
48.711,4.235573357000021,-0.94580078125,0.294677734375,-0.044677734375,-8.061068702290076,1.4961832061068703,-2.564885496183206,6592,23,-2,144.84375,23.33642517701365,-0.002628,False,,False,,,,,30
48.716,4.237575160000006,-0.945068359375,0.294921875,-0.060546875,-3.450381679389313,1.9236641221374045,-2.4732824427480917,6602,38,5,145.0634765625,27.259138786921078,0.0065699999999999995,False,,False,,,,,30
48.716,4.239578518999906,-0.945068359375,0.294921875,-0.060546875,-3.450381679389313,1.9236641221374045,-2.4732824427480917,6602,38,5,145.0634765625,27.259138786921078,0.0065699999999999995,False,,False,,,,,30
48.716,4.241578267000023,-0.945068359375,0.294921875,-0.060546875,-3.450381679389313,1.9236641221374045,-2.4732824427480917,6602,38,5,145.0634765625,27.259138786921078,0.0065699999999999995,False,,False,,,,,30
48.721000000000004,4.2435793849999754,-0.953369140625,0.2666015625,-0.064453125,-2.198473282442748,2.045801526717557,-2.8091603053435112,6611,50,6,145.26123046875,30.705312708859374,0.007884,False,,False,,,,,30
48.721000000000004,4.245580669999981,-0.953369140625,0.2666015625,-0.064453125,-2.198473282442748,2.045801526717557,-2.8091603053435112,6611,50,6,145.26123046875,30.705312708859374,0.007884,False,,False,,,,,30
48.726,4.247582325999929,-0.958251953125,0.25390625,-0.05810546875,-3.2061068702290076,2.381679389312977,-2.259541984732824,6620,40,2,145.458984375,33.73444375556325,0.002628,False,,False,,,,,29
48.726,4.249585072999935,-0.958251953125,0.25390625,-0.05810546875,-3.2061068702290076,2.381679389312977,-2.259541984732824,6620,40,2,145.458984375,33.73444375556325,0.002628,False,,False,,,,,29
48.726,4.251971356000013,-0.958251953125,0.25390625,-0.05810546875,-3.2061068702290076,2.381679389312977,-2.259541984732824,6620,40,2,145.458984375,33.73444375556325,0.002628,False,,False,,,,,29
48.731,4.2539693449998595,-0.94873046875,0.262939453125,-0.052490234375,-6.137404580152672,3.0229007633587783,-1.3129770992366412,6623,10,-2,145.52490234375,36.25914281949719,-0.002628,False,,False,,,,,29
48.731,4.2559710190000715,-0.94873046875,0.262939453125,-0.052490234375,-6.137404580152672,3.0229007633587783,-1.3129770992366412,6623,10,-2,145.52490234375,36.25914281949719,-0.002628,False,,False,,,,,29
48.731,4.257972062999897,-0.94873046875,0.262939453125,-0.052490234375,-6.137404580152672,3.0229007633587783,-1.3129770992366412,6623,10,-2,145.52490234375,36.25914281949719,-0.002628,False,,False,,,,,29
48.731,4.259974198999998,-0.94873046875,0.262939453125,-0.052490234375,-6.137404580152672,3.0229007633587783,-1.3129770992366412,6623,10,-2,145.52490234375,36.25914281949719,-0.002628,False,,False,,,,,29
48.731,4.261973835999925,-0.94873046875,0.262939453125,-0.052490234375,-6.137404580152672,3.0229007633587783,-1.3129770992366412,6623,10,-2,145.52490234375,36.25914281949719,-0.002628,False,,False,,,,,29
48.731,4.263975973000015,-0.94873046875,0.262939453125,-0.052490234375,-6.137404580152672,3.0229007633587783,-1.3129770992366412,6623,10,-2,145.52490234375,36.25914281949719,-0.002628,False,,False,,,,,29
48.731,4.2659786469998835,-0.94873046875,0.262939453125,-0.052490234375,-6.137404580152672,3.0229007633587783,-1.3129770992366412,6623,10,-2,145.52490234375,36.25914281949719,-0.002628,False,,False,,,,,29
48.731,4.267979765000064,-0.94873046875,0.262939453125,-0.052490234375,-6.137404580152672,3.0229007633587783,-1.3129770992366412,6623,10,-2,145.52490234375,36.25914281949719,-0.002628,False,,False,,,,,29
48.746,4.269982827999911,-0.949951171875,0.289794921875,-0.062255859375,-4.641221374045801,2.9923664122137406,-0.183206106870229,6624,4,-1,145.546875,38.09153736803507,-0.001314,False,,False,,,,,29
48.746,4.271982389999948,-0.949951171875,0.289794921875,-0.062255859375,-4.641221374045801,2.9923664122137406,-0.183206106870229,6624,4,-1,145.546875,38.09153736803507,-0.001314,False,,False,,,,,29
48.751,4.273984268000049,-0.958984375,0.276611328125,-0.060546875,-4.793893129770992,3.297709923664122,0.061068702290076333,6625,11,-5,145.56884765625,39.1480355603313,-0.0065699999999999995,False,,False,,,,,29
48.751,4.275985089999949,-0.958984375,0.276611328125,-0.060546875,-4.793893129770992,3.297709923664122,0.061068702290076333,6625,11,-5,145.56884765625,39.1480355603313,-0.0065699999999999995,False,,False,,,,,29
48.756,4.277989133999881,-0.963623046875,0.28125,-0.05322265625,-4.6106870229007635,3.2061068702290076,0.030534351145038167,6622,-1,6,145.5029296875,39.454779199505154,0.007884,False,,False,,,,,29
48.756,4.2799900850000085,-0.963623046875,0.28125,-0.05322265625,-4.6106870229007635,3.2061068702290076,0.030534351145038167,6622,-1,6,145.5029296875,39.454779199505154,0.007884,False,,False,,,,,29
48.756,4.281989425999882,-0.963623046875,0.28125,-0.05322265625,-4.6106870229007635,3.2061068702290076,0.030534351145038167,6622,-1,6,145.5029296875,39.454779199505154,0.007884,False,,False,,,,,29
48.761,4.283990488999962,-0.963623046875,0.283203125,-0.048095703125,-4.33587786259542,3.0229007633587783,0.15267175572519084,6624,0,4,145.546875,39.09226199006658,0.005256,False,,False,,,,,29
48.761,4.285992828999952,-0.963623046875,0.283203125,-0.048095703125,-4.33587786259542,3.0229007633587783,0.15267175572519084,6624,0,4,145.546875,39.09226199006658,0.005256,False,,False,,,,,29
48.766,4.287994113999957,-0.963623046875,0.2822265625,-0.0478515625,-4.213740458015267,2.9923664122137406,0.0916030534351145,6623,3,4,145.52490234375,38.222450343555366,0.005256,False,,False,,,,,30
48.766,4.289998917000048,-0.963623046875,0.2822265625,-0.0478515625,-4.213740458015267,2.9923664122137406,0.0916030534351145,6623,3,4,145.52490234375,38.222450343555366,0.005256,False,,False,,,,,30
48.766,4.29200042399998,-0.963623046875,0.2822265625,-0.0478515625,-4.213740458015267,2.9923664122137406,0.0916030534351145,6623,3,4,145.52490234375,38.222450343555366,0.005256,False,,False,,,,,30
48.771,4.293998875999932,-0.964599609375,0.281494140625,-0.0478515625,-4.183206106870228,2.931297709923664,0.12213740458015267,6625,-3,1,145.56884765625,36.972373010779,0.001314,False,,False,,,,,30
48.771,4.29600084599997,-0.964599609375,0.281494140625,-0.0478515625,-4.183206106870228,2.931297709923664,0.12213740458015267,6625,-3,1,145.56884765625,36.972373010779,0.001314,False,,False,,,,,30
48.776,4.298002150000002,-0.96533203125,0.280517578125,-0.049560546875,-3.969465648854962,3.145038167938931,0.0,6623,-5,2,145.52490234375,35.406138158137686,0.002628,False,,False,,,,,30
48.776,4.300005990000045,-0.96533203125,0.280517578125,-0.049560546875,-3.969465648854962,3.145038167938931,0.0,6623,-5,2,145.52490234375,35.406138158137686,0.002628,False,,False,,,,,30
48.776,4.302004460000035,-0.96533203125,0.280517578125,-0.049560546875,-3.969465648854962,3.145038167938931,0.0,6623,-5,2,145.52490234375,35.406138158137686,0.002628,False,,False,,,,,30
48.781,4.304007763000072,-0.96435546875,0.283447265625,-0.050048828125,-3.7557251908396947,3.2061068702290076,-0.061068702290076333,6624,0,2,145.546875,33.56608046102448,0.002628,False,,False,,,,,30
48.781,4.306007141000009,-0.96435546875,0.283447265625,-0.050048828125,-3.7557251908396947,3.2061068702290076,-0.061068702290076333,6624,0,2,145.546875,33.56608046102448,0.002628,False,,False,,,,,30
48.786,4.308008444000052,-0.9638671875,0.283447265625,-0.051025390625,-3.5725190839694654,3.145038167938931,-0.21374045801526717,6622,-8,0,145.5029296875,31.507524122021945,0.0,False,,False,,,,,29
48.786,4.3100137110000105,-0.9638671875,0.283447265625,-0.051025390625,-3.5725190839694654,3.145038167938931,-0.21374045801526717,6622,-8,0,145.5029296875,31.507524122021945,0.0,False,,False,,,,,29
48.786,4.312011069999926,-0.9638671875,0.283447265625,-0.051025390625,-3.5725190839694654,3.145038167938931,-0.21374045801526717,6622,-8,0,145.5029296875,31.507524122021945,0.0,False,,False,,,,,29
48.791000000000004,4.3140131319999,-0.959228515625,0.280517578125,-0.05224609375,-3.541984732824427,3.236641221374046,-0.030534351145038167,6622,1,-3,145.5029296875,29.279950878372013,-0.003942,False,,False,,,,,29
48.791000000000004,4.316014491000033,-0.959228515625,0.280517578125,-0.05224609375,-3.541984732824427,3.236641221374046,-0.030534351145038167,6622,1,-3,145.5029296875,29.279950878372013,-0.003942,False,,False,,,,,29
48.796,4.318016368999906,-0.956787109375,0.285888671875,-0.05615234375,-3.114503816793893,3.32824427480916,-0.183206106870229,6623,-5,3,145.52490234375,26.974981211947682,0.003942,False,,False,,,,,29
48.796,4.320020319999912,-0.956787109375,0.285888671875,-0.05615234375,-3.114503816793893,3.32824427480916,-0.183206106870229,6623,-5,3,145.52490234375,26.974981211947682,0.003942,False,,False,,,,,29
48.796,4.3220196980000765,-0.956787109375,0.285888671875,-0.05615234375,-3.114503816793893,3.32824427480916,-0.183206106870229,6623,-5,3,145.52490234375,26.974981211947682,0.003942,False,,False,,,,,29
48.801,4.324020687000029,-0.9541015625,0.289794921875,-0.0546875,-3.2061068702290076,3.2671755725190836,-0.33587786259541985,6624,3,3,145.546875,24.70227051501681,0.003942,False,,False,,,,,29
48.801,4.326022174999935,-0.9541015625,0.289794921875,-0.0546875,-3.2061068702290076,3.2671755725190836,-0.33587786259541985,6624,3,3,145.546875,24.70227051501681,0.003942,False,,False,,,,,29
48.806000000000004,4.328023534000067,-0.952880859375,0.286376953125,-0.05615234375,-2.9618320610687023,3.4198473282442747,-0.366412213740458,6624,5,3,145.546875,22.489490572713684,0.003942,False,,False,,,,,30
48.806000000000004,4.330029522999894,-0.952880859375,0.286376953125,-0.05615234375,-2.9618320610687023,3.4198473282442747,-0.366412213740458,6624,5,3,145.546875,22.489490572713684,0.003942,False,,False,,,,,30
48.806000000000004,4.332025808000026,-0.952880859375,0.286376953125,-0.05615234375,-2.9618320610687023,3.4198473282442747,-0.366412213740458,6624,5,3,145.546875,22.489490572713684,0.003942,False,,False,,,,,30
48.811,4.334027666999873,-0.95068359375,0.286865234375,-0.054443359375,-2.778625954198473,3.2671755725190836,-0.33587786259541985,6623,-1,0,145.52490234375,20.311192717600687,0.0,False,,False,,,,,30
48.811,4.336029247999932,-0.95068359375,0.286865234375,-0.054443359375,-2.778625954198473,3.2671755725190836,-0.33587786259541985,6623,-1,0,145.52490234375,20.311192717600687,0.0,False,,False,,,,,30
48.816,4.338030440000011,-0.947509765625,0.2880859375,-0.055908203125,-2.229007633587786,3.114503816793893,-0.6412213740458015,6623,-6,1,145.52490234375,18.161487852293956,0.001314,False,,False,,,,,30
48.816,4.340035520999891,-0.947509765625,0.2880859375,-0.055908203125,-2.229007633587786,3.114503816793893,-0.6412213740458015,6623,-6,1,145.52490234375,18.161487852293956,0.001314,False,,False,,,,,30
48.816,4.342033064999896,-0.947509765625,0.2880859375,-0.055908203125,-2.229007633587786,3.114503816793893,-0.6412213740458015,6623,-6,1,145.52490234375,18.161487852293956,0.001314,False,,False,,,,,30
48.821,4.3440347020000445,-0.947998046875,0.288330078125,-0.054931640625,-1.8931297709923662,2.8702290076335877,-0.5190839694656488,6623,-1,1,145.52490234375,16.082778291495433,0.001314,False,,False,,,,,30
48.821,4.346035671999971,-0.947998046875,0.288330078125,-0.054931640625,-1.8931297709923662,2.8702290076335877,-0.5190839694656488,6623,-1,1,145.52490234375,16.082778291495433,0.001314,False,,False,,,,,30
48.826,4.3480372530000295,-0.9453125,0.291259765625,-0.056396484375,-1.5572519083969465,2.748091603053435,-0.7633587786259541,6625,5,5,145.56884765625,14.141365170706212,0.0065699999999999995,False,,False,,,,,30
48.826,4.3500416859999405,-0.9453125,0.291259765625,-0.056396484375,-1.5572519083969465,2.748091603053435,-0.7633587786259541,6625,5,5,145.56884765625,14.141365170706212,0.0065699999999999995,False,,False,,,,,30
48.826,4.352040970999951,-0.9453125,0.291259765625,-0.056396484375,-1.5572519083969465,2.748091603053435,-0.7633587786259541,6625,5,5,145.56884765625,14.141365170706212,0.0065699999999999995,False,,False,,,,,30
48.831,4.354042737999862,-0.944091796875,0.287353515625,-0.056640625,-1.282442748091603,2.5038167938931295,-0.8854961832061068,6623,1,1,145.52490234375,12.343018830325159,0.001314,False,,False,,,,,30
48.831,4.356044707999899,-0.944091796875,0.287353515625,-0.056640625,-1.282442748091603,2.5038167938931295,-0.8854961832061068,6623,1,1,145.52490234375,12.343018830325159,0.001314,False,,False,,,,,30
48.836,4.358045732999926,-0.943115234375,0.29150390625,-0.056884765625,-1.0381679389312977,2.2900763358778624,-0.7633587786259541,6624,3,5,145.546875,10.642750746415032,0.0065699999999999995,False,,False,,,,,30
48.836,4.360056388999965,-0.943115234375,0.29150390625,-0.056884765625,-1.0381679389312977,2.2900763358778624,-0.7633587786259541,6624,3,5,145.546875,10.642750746415032,0.0065699999999999995,False,,False,,,,,30
48.836,4.362055099999907,-0.943115234375,0.29150390625,-0.056884765625,-1.0381679389312977,2.2900763358778624,-0.7633587786259541,6624,3,5,145.546875,10.642750746415032,0.0065699999999999995,False,,False,,,,,30
48.841,4.364056661999939,-0.945556640625,0.29296875,-0.05615234375,-0.6412213740458015,2.229007633587786,-0.916030534351145,6625,3,12,145.56884765625,9.08105448235904,0.015768,False,,False,,,,,30
48.841,4.366058132000035,-0.945556640625,0.29296875,-0.05615234375,-0.6412213740458015,2.229007633587786,-0.916030534351145,6625,3,12,145.56884765625,9.08105448235904,0.015768,False,,False,,,,,30
48.846000000000004,4.368059768999956,-0.945068359375,0.293212890625,-0.05615234375,-0.2748091603053435,1.984732824427481,-1.1603053435114503,6623,-8,-1,145.52490234375,7.657991869231918,-0.001314,False,,False,,,,,30
48.846000000000004,4.370063442999935,-0.945068359375,0.293212890625,-0.05615234375,-0.2748091603053435,1.984732824427481,-1.1603053435114503,6623,-8,-1,145.52490234375,7.657991869231918,-0.001314,False,,False,,,,,30
48.846000000000004,4.372063245999925,-0.945068359375,0.293212890625,-0.05615234375,-0.2748091603053435,1.984732824427481,-1.1603053435114503,6623,-8,-1,145.52490234375,7.657991869231918,-0.001314,False,,False,,,,,30
48.851,4.374065049999899,-0.9453125,0.29638671875,-0.057373046875,0.0916030534351145,1.9236641221374045,-1.129770992366412,6624,7,1,145.546875,6.323859545366595,0.001314,False,,False,,,,,30
48.851,4.3760662229999525,-0.9453125,0.29638671875,-0.057373046875,0.0916030534351145,1.9236641221374045,-1.129770992366412,6624,7,1,145.546875,6.323859545366595,0.001314,False,,False,,,,,30
48.856,4.378067655999985,-0.9453125,0.29638671875,-0.05712890625,0.6106870229007634,1.5877862595419847,-1.1603053435114503,6624,1,6,145.546875,5.115336422605198,0.007884,False,,False,,,,,29
48.856,4.380070960000012,-0.9453125,0.29638671875,-0.05712890625,0.6106870229007634,1.5877862595419847,-1.1603053435114503,6624,1,6,145.546875,5.115336422605198,0.007884,False,,False,,,,,29
48.856,4.382070911000028,-0.9453125,0.29638671875,-0.05712890625,0.6106870229007634,1.5877862595419847,-1.1603053435114503,6624,1,6,145.546875,5.115336422605198,0.007884,False,,False,,,,,29
48.861000000000004,4.384071714999891,-0.943359375,0.291748046875,-0.052978515625,1.1603053435114503,1.3129770992366412,-1.129770992366412,6623,1,-2,145.52490234375,4.029478561653188,-0.002628,False,,False,,,,,29
48.861000000000004,4.386073128999897,-0.943359375,0.291748046875,-0.052978515625,1.1603053435114503,1.3129770992366412,-1.129770992366412,6623,1,-2,145.52490234375,4.029478561653188,-0.002628,False,,False,,,,,29
48.866,4.388075098999934,-0.9462890625,0.298828125,-0.054443359375,1.4045801526717556,1.0381679389312977,-1.0381679389312977,6623,-2,-1,145.52490234375,3.030213147316103,-0.001314,False,,False,,,,,30
48.866,4.3900776069999665,-0.9462890625,0.298828125,-0.054443359375,1.4045801526717556,1.0381679389312977,-1.0381679389312977,6623,-2,-1,145.52490234375,3.030213147316103,-0.001314,False,,False,,,,,30
48.866,4.392077040000004,-0.9462890625,0.298828125,-0.054443359375,1.4045801526717556,1.0381679389312977,-1.0381679389312977,6623,-2,-1,145.52490234375,3.030213147316103,-0.001314,False,,False,,,,,30
48.871,4.3940786579998985,-0.948486328125,0.298583984375,-0.0556640625,1.9541984732824427,0.7938931297709924,-1.1603053435114503,6624,0,4,145.546875,2.1497486099306347,0.005256,False,,False,,,,,30
48.871,4.396080035000068,-0.948486328125,0.298583984375,-0.0556640625,1.9541984732824427,0.7938931297709924,-1.1603053435114503,6624,0,4,145.546875,2.1497486099306347,0.005256,False,,False,,,,,30
48.876,4.398084838999921,-0.949951171875,0.299072265625,-0.052001953125,2.778625954198473,0.5801526717557252,-1.0381679389312977,6623,-5,3,145.52490234375,1.397412628035451,0.003942,False,,False,,,,,30
48.876,4.400084530999948,-0.949951171875,0.299072265625,-0.052001953125,2.778625954198473,0.5801526717557252,-1.0381679389312977,6623,-5,3,145.52490234375,1.397412628035451,0.003942,False,,False,,,,,30
48.876,4.402084779000006,-0.949951171875,0.299072265625,-0.052001953125,2.778625954198473,0.5801526717557252,-1.0381679389312977,6623,-5,3,145.52490234375,1.397412628035451,0.003942,False,,False,,,,,30
48.881,4.404086563999954,-0.949951171875,0.302490234375,-0.05224609375,3.4198473282442747,0.6106870229007634,-1.0687022900763359,6623,-3,3,145.52490234375,0.7314112218834465,0.003942,False,,False,,,,,30
48.881,4.406089588999976,-0.949951171875,0.302490234375,-0.05224609375,3.4198473282442747,0.6106870229007634,-1.0687022900763359,6623,-3,3,145.52490234375,0.7314112218834465,0.003942,False,,False,,,,,30
48.886,4.408089597000071,-0.953369140625,0.298828125,-0.051025390625,3.7251908396946565,0.5190839694656488,-0.9465648854961831,6623,-2,4,145.52490234375,0.1473357183389361,0.005256,False,,False,,,,,30
48.886,4.410093751999966,-0.953369140625,0.298828125,-0.051025390625,3.7251908396946565,0.5190839694656488,-0.9465648854961831,6623,-2,4,145.52490234375,0.1473357183389361,0.005256,False,,False,,,,,30
48.886,4.412092555000072,-0.953369140625,0.298828125,-0.051025390625,3.7251908396946565,0.5190839694656488,-0.9465648854961831,6623,-2,4,145.52490234375,0.1473357183389361,0.005256,False,,False,,,,,30
48.891,4.414093580999861,-0.956787109375,0.29736328125,-0.046630859375,4.244274809160305,0.3053435114503817,-0.8244274809160305,6623,-2,6,145.52490234375,-0.3437759883670375,0.007884,False,,False,,,,,30
48.891,4.416095531999872,-0.956787109375,0.29736328125,-0.046630859375,4.244274809160305,0.3053435114503817,-0.8244274809160305,6623,-2,6,145.52490234375,-0.3437759883670375,0.007884,False,,False,,,,,30
48.896,4.418096557999888,-0.94775390625,0.29638671875,-0.044189453125,4.854961832061068,0.3969465648854962,-0.8549618320610687,6624,3,4,145.546875,-0.734029916774034,0.005256,False,,False,,,,,29
48.896,4.420101027999863,-0.94775390625,0.29638671875,-0.044189453125,4.854961832061068,0.3969465648854962,-0.8549618320610687,6624,3,4,145.546875,-0.734029916774034,0.005256,False,,False,,,,,29
48.896,4.422099905999858,-0.94775390625,0.29638671875,-0.044189453125,4.854961832061068,0.3969465648854962,-0.8549618320610687,6624,3,4,145.546875,-0.734029916774034,0.005256,False,,False,,,,,29
48.901,4.424101413000017,-0.94873046875,0.296630859375,-0.048828125,5.221374045801526,0.15267175572519084,-0.7633587786259541,6623,-3,0,145.52490234375,-1.0341940620481191,0.0,False,,False,,,,,29
48.901,4.426102957000012,-0.94873046875,0.296630859375,-0.048828125,5.221374045801526,0.15267175572519084,-0.7633587786259541,6623,-3,0,145.52490234375,-1.0341940620481191,0.0,False,,False,,,,,29
48.906,4.42810442699988,-0.95068359375,0.29638671875,-0.05078125,5.587786259541985,0.3053435114503817,-0.549618320610687,6622,6,-4,145.5029296875,-1.3023350759568648,-0.005256,False,,False,,,,,30
48.906,4.430105656000023,-0.95068359375,0.29638671875,-0.05078125,5.587786259541985,0.3053435114503817,-0.549618320610687,6622,6,-4,145.5029296875,-1.3023350759568648,-0.005256,False,,False,,,,,30
48.906,4.4321074599999974,-0.95068359375,0.29638671875,-0.05078125,5.587786259541985,0.3053435114503817,-0.549618320610687,6622,6,-4,145.5029296875,-1.3023350759568648,-0.005256,False,,False,,,,,30
48.911,4.434109225999919,-0.947265625,0.3017578125,-0.050537109375,5.893129770992366,0.21374045801526717,-0.6717557251908397,6620,-11,4,145.458984375,-1.5875292042416187,0.005256,False,,False,,,,,30
48.911,4.436111122000057,-0.947265625,0.3017578125,-0.050537109375,5.893129770992366,0.21374045801526717,-0.6717557251908397,6620,-11,4,145.458984375,-1.5875292042416187,0.005256,False,,False,,,,,30
48.916000000000004,4.438111962999983,-0.94873046875,0.301513671875,-0.052734375,6.748091603053435,0.3969465648854962,-0.5801526717557252,6620,-9,4,145.458984375,-1.8828683577684144,0.005256,False,,False,,,,,30
48.916000000000004,4.440116024999952,-0.94873046875,0.301513671875,-0.052734375,6.748091603053435,0.3969465648854962,-0.5801526717557252,6620,-9,4,145.458984375,-1.8828683577684144,0.005256,False,,False,,,,,30
48.916000000000004,4.442115420999926,-0.94873046875,0.301513671875,-0.052734375,6.748091603053435,0.3969465648854962,-0.5801526717557252,6620,-9,4,145.458984375,-1.8828683577684144,0.005256,False,,False,,,,,30
48.921,4.444116668999868,-0.94873046875,0.3046875,-0.053466796875,6.961832061068702,0.3053435114503817,-0.5801526717557252,6619,-6,-3,145.43701171875,-2.1505910576777403,-0.003942,False,,False,,,,,30
48.921,4.446118306000017,-0.94873046875,0.3046875,-0.053466796875,6.961832061068702,0.3053435114503817,-0.5801526717557252,6619,-6,-3,145.43701171875,-2.1505910576777403,-0.003942,False,,False,,,,,30
48.926,4.44812068300007,-0.95068359375,0.305908203125,-0.0546875,7.236641221374046,0.33587786259541985,-0.48854961832061067,6619,0,-7,145.43701171875,-2.3753997513373326,-0.009198,False,,False,,,,,30
48.926,4.4501237459999174,-0.95068359375,0.305908203125,-0.0546875,7.236641221374046,0.33587786259541985,-0.48854961832061067,6619,0,-7,145.43701171875,-2.3753997513373326,-0.009198,False,,False,,,,,30
48.926,4.452123883000013,-0.95068359375,0.305908203125,-0.0546875,7.236641221374046,0.33587786259541985,-0.48854961832061067,6619,0,-7,145.43701171875,-2.3753997513373326,-0.009198,False,,False,,,,,30
48.931000000000004,4.454125297000019,-0.94677734375,0.310546875,-0.052978515625,7.297709923664121,0.183206106870229,0.030534351145038167,6618,-6,0,145.4150390625,-2.5610248844218497,0.0,False,,False,,,,,30
48.931000000000004,4.456126785999913,-0.94677734375,0.310546875,-0.052978515625,7.297709923664121,0.183206106870229,0.030534351145038167,6618,-6,0,145.4150390625,-2.5610248844218497,0.0,False,,False,,,,,30
48.936,4.458127977999993,-0.933837890625,0.331787109375,-0.0537109375,5.404580152671755,0.48854961832061067,1.7709923664122136,6617,-3,-2,145.39306640625,-2.727072751704136,-0.002628,False,,False,,,,,30
48.936,4.460131595999883,-0.933837890625,0.331787109375,-0.0537109375,5.404580152671755,0.48854961832061067,1.7709923664122136,6617,-3,-2,145.39306640625,-2.727072751704136,-0.002628,False,,False,,,,,30
48.936,4.462130862999857,-0.933837890625,0.331787109375,-0.0537109375,5.404580152671755,0.48854961832061067,1.7709923664122136,6617,-3,-2,145.39306640625,-2.727072751704136,-0.002628,False,,False,,,,,30
48.941,4.464132850999931,-0.934326171875,0.323486328125,-0.0625,8.061068702290076,0.061068702290076333,1.3129770992366412,6617,-4,0,145.39306640625,-2.8743254013089365,0.0,False,,False,,,,,30
48.941,4.466134691999969,-0.934326171875,0.323486328125,-0.0625,8.061068702290076,0.061068702290076333,1.3129770992366412,6617,-4,0,145.39306640625,-2.8743254013089365,0.0,False,,False,,,,,30
48.946,4.468135957999948,-0.926513671875,0.327392578125,-0.065185546875,9.251908396946565,0.183206106870229,1.648854961832061,6616,-5,6,145.37109375,-2.9877942381514977,0.007884,False,,False,,,,,30
48.946,4.470140150999896,-0.926513671875,0.327392578125,-0.065185546875,9.251908396946565,0.183206106870229,1.648854961832061,6616,-5,6,145.37109375,-2.9877942381514977,0.007884,False,,False,,,,,30
48.946,4.472138786999949,-0.926513671875,0.327392578125,-0.065185546875,9.251908396946565,0.183206106870229,1.648854961832061,6616,-5,6,145.37109375,-2.9877942381514977,0.007884,False,,False,,,,,30
48.951,4.474140776000013,-0.9384765625,0.33935546875,-0.056396484375,7.755725190839694,0.4580152671755725,2.9618320610687023,6615,0,-1,145.34912109375,-3.087251687479284,-0.001314,False,,False,,,,,30
48.951,4.476143542000045,-0.9384765625,0.33935546875,-0.056396484375,7.755725190839694,0.4580152671755725,2.9618320610687023,6615,0,-1,145.34912109375,-3.087251687479284,-0.001314,False,,False,,,,,30
48.956,4.478143548999924,-0.9208984375,0.333251953125,-0.060546875,7.66412213740458,0.42748091603053434,3.6946564885496183,6616,-1,-2,145.37109375,-3.1576226548531374,-0.002628,False,,False,,,,,30
48.956,4.480148685999893,-0.9208984375,0.333251953125,-0.060546875,7.66412213740458,0.42748091603053434,3.6946564885496183,6616,-1,-2,145.37109375,-3.1576226548531374,-0.002628,False,,False,,,,,30
48.956,4.482145989999935,-0.9208984375,0.333251953125,-0.060546875,7.66412213740458,0.42748091603053434,3.6946564885496183,6616,-1,-2,145.37109375,-3.1576226548531374,-0.002628,False,,False,,,,,30
48.961,4.4841478119999465,-0.93896484375,0.323486328125,-0.050048828125,8.82442748091603,-0.42748091603053434,3.0534351145038165,6615,-6,9,145.34912109375,-3.1707923231188806,0.011826,False,,False,,,,,30
48.961,4.486149393000005,-0.93896484375,0.323486328125,-0.050048828125,8.82442748091603,-0.42748091603053434,3.0534351145038165,6615,-6,9,145.34912109375,-3.1707923231188806,0.011826,False,,False,,,,,30
48.966,4.488150307000069,-0.965087890625,0.306396484375,-0.060302734375,15.022900763358779,-1.0381679389312977,1.099236641221374,6613,-12,2,145.30517578125,-3.1836301057515453,0.002628,False,,False,,,,,30
48.966,4.490153758999895,-0.965087890625,0.306396484375,-0.060302734375,15.022900763358779,-1.0381679389312977,1.099236641221374,6613,-12,2,145.30517578125,-3.1836301057515453,0.002628,False,,False,,,,,30
48.966,4.492153746999975,-0.965087890625,0.306396484375,-0.060302734375,15.022900763358779,-1.0381679389312977,1.099236641221374,6613,-12,2,145.30517578125,-3.1836301057515453,0.002628,False,,False,,,,,30
48.971000000000004,4.494158365999965,-0.947998046875,0.291259765625,-0.066162109375,16.519083969465647,-1.4045801526717556,0.4580152671755725,6610,-14,1,145.2392578125,-3.27558202535611,0.001314,False,,False,,,,,30
48.971000000000004,4.496156242999859,-0.947998046875,0.291259765625,-0.066162109375,16.519083969465647,-1.4045801526717556,0.4580152671755725,6610,-14,1,145.2392578125,-3.27558202535611,0.001314,False,,False,,,,,30
48.976,4.498158805999992,-0.9658203125,0.2763671875,-0.047119140625,12.580152671755725,-1.648854961832061,0.6412213740458015,6606,-23,0,145.1513671875,-3.496097136898169,0.0,False,,False,,,,,30
48.976,4.500162145999866,-0.9658203125,0.2763671875,-0.047119140625,12.580152671755725,-1.648854961832061,0.6412213740458015,6606,-23,0,145.1513671875,-3.496097136898169,0.0,False,,False,,,,,30
48.976,4.50216152400003,-0.9658203125,0.2763671875,-0.047119140625,12.580152671755725,-1.648854961832061,0.6412213740458015,6606,-23,0,145.1513671875,-3.496097136898169,0.0,False,,False,,,,,30
48.981,4.504165585999999,-0.959228515625,0.30029296875,-0.04541015625,12.305343511450381,-1.7709923664122136,0.7022900763358778,6602,-16,0,145.0634765625,-3.8687952295290375,0.0,False,,False,,,,,30
48.981,4.506163816000026,-0.959228515625,0.30029296875,-0.04541015625,12.305343511450381,-1.7709923664122136,0.7022900763358778,6602,-16,0,145.0634765625,-3.8687952295290375,0.0,False,,False,,,,,30
48.986000000000004,4.5081651559999045,-0.946044921875,0.3251953125,-0.04833984375,13.709923664122137,-2.381679389312977,0.8244274809160305,6598,-18,-1,144.9755859375,-4.379414538984781,-0.001314,False,,False,,,,,29
48.986000000000004,4.510169182000027,-0.946044921875,0.3251953125,-0.04833984375,13.709923664122137,-2.381679389312977,0.8244274809160305,6598,-18,-1,144.9755859375,-4.379414538984781,-0.001314,False,,False,,,,,29
48.986000000000004,4.51216878199989,-0.946044921875,0.3251953125,-0.04833984375,13.709923664122137,-2.381679389312977,0.8244274809160305,6598,-18,-1,144.9755859375,-4.379414538984781,-0.001314,False,,False,,,,,29
48.991,4.514170696000065,-0.9541015625,0.3310546875,-0.055419921875,14.351145038167939,-2.687022900763359,1.3740458015267174,6590,-32,1,144.7998046875,-5.061764128807989,0.001314,False,,False,,,,,29
48.991,4.516172036999933,-0.9541015625,0.3310546875,-0.055419921875,14.351145038167939,-2.687022900763359,1.3740458015267174,6590,-32,1,144.7998046875,-5.061764128807989,0.001314,False,,False,,,,,29
48.996,4.518173320999949,-0.9375,0.3447265625,-0.056640625,11.877862595419847,-2.015267175572519,4.244274809160305,6578,-57,0,144.5361328125,-6.068985257874063,0.0,False,,False,,,,,30
48.996,4.520176587999913,-0.9375,0.3447265625,-0.056640625,11.877862595419847,-2.015267175572519,4.244274809160305,6578,-57,0,144.5361328125,-6.068985257874063,0.0,False,,False,,,,,30
48.996,4.52217716899986,-0.9375,0.3447265625,-0.056640625,11.877862595419847,-2.015267175572519,4.244274809160305,6578,-57,0,144.5361328125,-6.068985257874063,0.0,False,,False,,,,,30
49.001,4.52417849099993,-0.91845703125,0.370849609375,-0.054931640625,9.099236641221374,-1.4961832061068703,6.625954198473282,6554,-115,0,144.0087890625,-7.715565764309026,0.0,False,,False,,,,,30
49.001,4.526180220000015,-0.91845703125,0.370849609375,-0.054931640625,9.099236641221374,-1.4961832061068703,6.625954198473282,6554,-115,0,144.0087890625,-7.715565764309026,0.0,False,,False,,,,,30
49.006,4.528181264000068,-0.9169921875,0.362060546875,-0.050048828125,9.893129770992367,-1.7099236641221374,6.564885496183206,6526,-126,-1,143.3935546875,-10.382851612340648,-0.001314,False,,False,,,,,29
49.006,4.5301854199999525,-0.9169921875,0.362060546875,-0.050048828125,9.893129770992367,-1.7099236641221374,6.564885496183206,6526,-126,-1,143.3935546875,-10.382851612340648,-0.001314,False,,False,,,,,29
49.006,4.532187778999969,-0.9169921875,0.362060546875,-0.050048828125,9.893129770992367,-1.7099236641221374,6.564885496183206,6526,-126,-1,143.3935546875,-10.382851612340648,-0.001314,False,,False,,,,,29
49.011,4.53418572999999,-0.935302734375,0.364501953125,-0.056884765625,14.534351145038167,-1.5877862595419847,6.748091603053435,6500,-110,0,142.822265625,-14.15249367100015,0.0,False,,False,,,,,29
49.011,4.536187552000001,-0.935302734375,0.364501953125,-0.056884765625,14.534351145038167,-1.5877862595419847,6.748091603053435,6500,-110,0,142.822265625,-14.15249367100015,0.0,False,,False,,,,,29
49.016,4.5381884670000545,-0.924560546875,0.3369140625,-0.058837890625,14.595419847328243,-2.198473282442748,7.480916030534351,6470,-129,6,142.1630859375,-18.85406072087816,0.007884,False,,False,,,,,29
49.016,4.540192122000008,-0.924560546875,0.3369140625,-0.058837890625,14.595419847328243,-2.198473282442748,7.480916030534351,6470,-129,6,142.1630859375,-18.85406072087816,0.007884,False,,False,,,,,29
49.016,4.542191517999981,-0.924560546875,0.3369140625,-0.058837890625,14.595419847328243,-2.198473282442748,7.480916030534351,6470,-129,6,142.1630859375,-18.85406072087816,0.007884,False,,False,,,,,29
49.021,4.544196506999924,-0.9423828125,0.34375,-0.05224609375,14.870229007633586,-1.3435114503816794,8.51908396946565,6441,-130,-3,141.52587890625,-24.347285922823414,-0.003942,False,,False,,,,,29
49.021,4.546194976999914,-0.9423828125,0.34375,-0.05224609375,14.870229007633586,-1.3435114503816794,8.51908396946565,6441,-130,-3,141.52587890625,-24.347285922823414,-0.003942,False,,False,,,,,29
49.026,4.548196835999988,-0.9111328125,0.357666015625,-0.05859375,12.549618320610687,-1.3740458015267174,9.709923664122137,6405,-169,-2,140.73486328125,-30.566934288415077,-0.002628,False,,False,,,,,29
49.026,4.550200120999989,-0.9111328125,0.357666015625,-0.05859375,12.549618320610687,-1.3740458015267174,9.709923664122137,6405,-169,-2,140.73486328125,-30.566934288415077,-0.002628,False,,False,,,,,29
49.026,4.552199442000074,-0.9111328125,0.357666015625,-0.05859375,12.549618320610687,-1.3740458015267174,9.709923664122137,6405,-169,-2,140.73486328125,-30.566934288415077,-0.002628,False,,False,,,,,29
49.031,4.554200486999889,-0.938232421875,0.3525390625,-0.04736328125,14.564885496183205,-2.5343511450381677,9.099236641221374,6372,-143,-3,140.009765625,-37.46378438154778,-0.003942,False,,False,,,,,29
49.031,4.556201400999953,-0.938232421875,0.3525390625,-0.04736328125,14.564885496183205,-2.5343511450381677,9.099236641221374,6372,-143,-3,140.009765625,-37.46378438154778,-0.003942,False,,False,,,,,29
49.036,4.558202555999969,-0.943115234375,0.335205078125,-0.06201171875,19.63358778625954,-3.6946564885496183,7.480916030534351,6341,-127,-5,139.32861328125,-44.811746964608446,-0.0065699999999999995,False,,False,,,,,29
49.036,4.56020602600006,-0.943115234375,0.335205078125,-0.06201171875,19.63358778625954,-3.6946564885496183,7.480916030534351,6341,-127,-5,139.32861328125,-44.811746964608446,-0.0065699999999999995,False,,False,,,,,29
49.036,4.56220907099987,-0.943115234375,0.335205078125,-0.06201171875,19.63358778625954,-3.6946564885496183,7.480916030534351,6341,-127,-5,139.32861328125,-44.811746964608446,-0.0065699999999999995,False,,False,,,,,29
49.041000000000004,4.564206780999939,-0.97216796875,0.323486328125,-0.053466796875,22.62595419847328,-3.7862595419847325,6.8396946564885495,6321,-80,-4,138.88916015625,-52.14444405914256,-0.005256,False,,False,,,,,29
49.041000000000004,4.566208789000029,-0.97216796875,0.323486328125,-0.053466796875,22.62595419847328,-3.7862595419847325,6.8396946564885495,6321,-80,-4,138.88916015625,-52.14444405914256,-0.005256,False,,False,,,,,29
49.046,4.568209944000046,-0.9501953125,0.3232421875,-0.056884765625,20.82442748091603,-3.847328244274809,7.938931297709924,6298,-105,-1,138.3837890625,-59.02390694820442,-0.001314,False,,False,,,,,30
49.046,4.570213691999925,-0.9501953125,0.3232421875,-0.056884765625,20.82442748091603,-3.847328244274809,7.938931297709924,6298,-105,-1,138.3837890625,-59.02390694820442,-0.001314,False,,False,,,,,30
49.046,4.572212142999888,-0.9501953125,0.3232421875,-0.056884765625,20.82442748091603,-3.847328244274809,7.938931297709924,6298,-105,-1,138.3837890625,-59.02390694820442,-0.001314,False,,False,,,,,30
49.051,4.574216390999936,-0.944580078125,0.334716796875,-0.037841796875,17.679389312977097,-4.488549618320611,8.610687022900763,6268,-122,-3,137.724609375,-65.45610076760181,-0.003942,False,,False,,,,,30
49.051,4.576216417000069,-0.944580078125,0.334716796875,-0.037841796875,17.679389312977097,-4.488549618320611,8.610687022900763,6268,-122,-3,137.724609375,-65.45610076760181,-0.003942,False,,False,,,,,30
49.056000000000004,4.578215441999873,-0.939453125,0.366455078125,-0.05078125,18.9618320610687,-4.244274809160305,10.50381679389313,6239,-135,-2,137.08740234375,-71.67531718039493,-0.002628,False,,False,,,,,30
49.056000000000004,4.580219338000006,-0.939453125,0.366455078125,-0.05078125,18.9618320610687,-4.244274809160305,10.50381679389313,6239,-135,-2,137.08740234375,-71.67531718039493,-0.002628,False,,False,,,,,30
49.056000000000004,4.582218474999991,-0.939453125,0.366455078125,-0.05078125,18.9618320610687,-4.244274809160305,10.50381679389313,6239,-135,-2,137.08740234375,-71.67531718039493,-0.002628,False,,False,,,,,30
49.061,4.58422081599997,-0.927490234375,0.360107421875,-0.053955078125,18.83969465648855,-5.2824427480916025,10.50381679389313,6206,-152,-5,136.3623046875,-77.7693770651229,-0.0065699999999999995,False,,False,,,,,30
49.061,4.586221118999902,-0.927490234375,0.360107421875,-0.053955078125,18.83969465648855,-5.2824427480916025,10.50381679389313,6206,-152,-5,136.3623046875,-77.7693770651229,-0.0065699999999999995,False,,False,,,,,30
49.066,4.588222403999907,-0.949462890625,0.367431640625,-0.0439453125,20.427480916030532,-4.885496183206107,11.877862595419847,6169,-168,-6,135.54931640625,-83.84544674342284,-0.007884,False,,False,,,,,30
49.066,4.5902271150000615,-0.949462890625,0.367431640625,-0.0439453125,20.427480916030532,-4.885496183206107,11.877862595419847,6169,-168,-6,135.54931640625,-83.84544674342284,-0.007884,False,,False,,,,,30
49.066,4.592225326000062,-0.949462890625,0.367431640625,-0.0439453125,20.427480916030532,-4.885496183206107,11.877862595419847,6169,-168,-6,135.54931640625,-83.84544674342284,-0.007884,False,,False,,,,,30
49.071,4.594227295999872,-0.9150390625,0.36181640625,-0.060791015625,18.442748091603054,-4.549618320610687,13.282442748091603,6126,-187,0,134.6044921875,-90.10491366075797,0.0,False,,False,,,,,30
49.071,4.596228655000004,-0.9150390625,0.36181640625,-0.060791015625,18.442748091603054,-4.549618320610687,13.282442748091603,6126,-187,0,134.6044921875,-90.10491366075797,0.0,False,,False,,,,,30
49.076,4.598230865000005,-0.89794921875,0.348876953125,-0.06201171875,18.16793893129771,-4.763358778625954,14.717557251908396,6076,-219,2,133.505859375,-96.79329682867586,0.002628,False,,False,,,,,30
49.076,4.600235224000016,-0.89794921875,0.348876953125,-0.06201171875,18.16793893129771,-4.763358778625954,14.717557251908396,6076,-219,2,133.505859375,-96.79329682867586,0.002628,False,,False,,,,,30
49.076,4.602233583000043,-0.89794921875,0.348876953125,-0.06201171875,18.16793893129771,-4.763358778625954,14.717557251908396,6076,-219,2,133.505859375,-96.79329682867586,0.002628,False,,False,,,,,30
49.081,4.6042355530000805,-0.938232421875,0.378173828125,-0.041748046875,20.82442748091603,-4.641221374045801,16.030534351145036,6028,-218,2,132.451171875,-104.03034870347825,0.002628,False,,False,,,,,30
49.081,4.606237004999912,-0.938232421875,0.378173828125,-0.041748046875,20.82442748091603,-4.641221374045801,16.030534351145036,6028,-218,2,132.451171875,-104.03034870347825,0.002628,False,,False,,,,,30
49.086,4.608238567999933,-0.91015625,0.34033203125,-0.06787109375,22.106870229007633,-5.557251908396946,15.206106870229007,5977,-220,6,131.33056640625,-111.71738831988205,0.007884,False,,False,,,,,30
49.086,4.6102418899999975,-0.91015625,0.34033203125,-0.06787109375,22.106870229007633,-5.557251908396946,15.206106870229007,5977,-220,6,131.33056640625,-111.71738831988205,0.007884,False,,False,,,,,30
49.086,4.612241471000061,-0.91015625,0.34033203125,-0.06787109375,22.106870229007633,-5.557251908396946,15.206106870229007,5977,-220,6,131.33056640625,-111.71738831988205,0.007884,False,,False,,,,,30
49.091,4.614242921999903,-0.93017578125,0.352783203125,-0.05517578125,21.12977099236641,-4.702290076335878,16.366412213740457,5926,-224,6,130.2099609375,-119.73345175009239,0.007884,False,,False,,,,,30
49.091,4.616244503999951,-0.93017578125,0.352783203125,-0.05517578125,21.12977099236641,-4.702290076335878,16.366412213740457,5926,-224,6,130.2099609375,-119.73345175009239,0.007884,False,,False,,,,,30
49.096000000000004,4.618246473999989,-0.923828125,0.31201171875,-0.073486328125,23.725190839694655,-6.473282442748092,14.473282442748092,5877,-210,-3,129.13330078125,-127.92475695765081,-0.003942,False,,False,,,,,29
49.096000000000004,4.620249777000026,-0.923828125,0.31201171875,-0.073486328125,23.725190839694655,-6.473282442748092,14.473282442748092,5877,-210,-3,129.13330078125,-127.92475695765081,-0.003942,False,,False,,,,,29
49.096000000000004,4.62224930299999,-0.923828125,0.31201171875,-0.073486328125,23.725190839694655,-6.473282442748092,14.473282442748092,5877,-210,-3,129.13330078125,-127.92475695765081,-0.003942,False,,False,,,,,29
49.101,4.6242503280000165,-0.956787109375,0.352783203125,-0.0546875,25.00763358778626,-5.709923664122138,15.358778625954198,5831,-205,1,128.12255859375,-136.0326970229608,0.001314,False,,False,,,,,29
49.101,4.626251743000012,-0.956787109375,0.352783203125,-0.0546875,25.00763358778626,-5.709923664122138,15.358778625954198,5831,-205,1,128.12255859375,-136.0326970229608,0.001314,False,,False,,,,,29
49.106,4.628255972000034,-0.93017578125,0.3232421875,-0.065185546875,25.31297709923664,-7.419847328244274,14.076335877862595,5789,-184,-2,127.19970703125,-143.7624007030536,-0.002628,False,,False,,,,,29
49.106,4.630256256999928,-0.93017578125,0.3232421875,-0.065185546875,25.31297709923664,-7.419847328244274,14.076335877862595,5789,-184,-2,127.19970703125,-143.7624007030536,-0.002628,False,,False,,,,,29
49.106,4.632256245999997,-0.93017578125,0.3232421875,-0.065185546875,25.31297709923664,-7.419847328244274,14.076335877862595,5789,-184,-2,127.19970703125,-143.7624007030536,-0.002628,False,,False,,,,,29
49.111000000000004,4.634353788999988,-0.94970703125,0.345458984375,-0.054931640625,25.31297709923664,-6.442748091603053,15.17557251908397,5746,-182,1,126.2548828125,-150.90431779591893,0.001314,False,,False,,,,,29
49.111000000000004,4.636350592999861,-0.94970703125,0.345458984375,-0.054931640625,25.31297709923664,-6.442748091603053,15.17557251908397,5746,-182,1,126.2548828125,-150.90431779591893,0.001314,False,,False,,,,,29
49.116,4.638354191999952,-0.94384765625,0.3466796875,-0.066162109375,24.793893129770993,-7.541984732824427,15.450381679389313,5701,-205,2,125.26611328125,-157.45068774663747,0.002628,False,,False,,,,,30
49.116,4.640353162999872,-0.94384765625,0.3466796875,-0.066162109375,24.793893129770993,-7.541984732824427,15.450381679389313,5701,-205,2,125.26611328125,-157.45068774663747,0.002628,False,,False,,,,,30
49.121,4.642354298999862,-0.956787109375,0.346923828125,-0.056396484375,24.396946564885496,-8.610687022900763,15.84732824427481,5656,-199,-2,124.27734375,-163.48321905230665,-0.002628,False,,False,,,,,30
49.121,4.6443558429998575,-0.956787109375,0.346923828125,-0.056396484375,24.396946564885496,-8.610687022900763,15.84732824427481,5656,-199,-2,124.27734375,-163.48321905230665,-0.002628,False,,False,,,,,30
49.121,4.646356461999858,-0.956787109375,0.346923828125,-0.056396484375,24.396946564885496,-8.610687022900763,15.84732824427481,5656,-199,-2,124.27734375,-163.48321905230665,-0.002628,False,,False,,,,,30
49.126,4.648358247000033,-0.9306640625,0.343017578125,-0.063720703125,23.48091603053435,-7.8473282442748085,15.450381679389313,5608,-207,-4,123.22265625,-169.0777604071369,-0.005256,False,,False,,,,,30
49.126,4.65036168000006,-0.9306640625,0.343017578125,-0.063720703125,23.48091603053435,-7.8473282442748085,15.450381679389313,5608,-207,-4,123.22265625,-169.0777604071369,-0.005256,False,,False,,,,,30
49.131,4.652361445999986,-0.96533203125,0.37060546875,-0.044921875,26.198473282442748,-8.091603053435113,15.938931297709923,5562,-198,-3,122.2119140625,-174.28824039403273,-0.003942,False,,False,,,,,30
49.131,4.654363009000008,-0.96533203125,0.37060546875,-0.044921875,26.198473282442748,-8.091603053435113,15.938931297709923,5562,-198,-3,122.2119140625,-174.28824039403273,-0.003942,False,,False,,,,,30
49.131,4.656363570999929,-0.96533203125,0.37060546875,-0.044921875,26.198473282442748,-8.091603053435113,15.938931297709923,5562,-198,-3,122.2119140625,-174.28824039403273,-0.003942,False,,False,,,,,30
49.136,4.6583652269998765,-0.95458984375,0.3623046875,-0.044921875,27.450381679389313,-7.66412213740458,16.519083969465647,5517,-200,-3,121.22314453125,-179.06987726933687,-0.003942,False,,False,,,,,30
49.136,4.660368715000004,-0.95458984375,0.3623046875,-0.044921875,27.450381679389313,-7.66412213740458,16.519083969465647,5517,-200,-3,121.22314453125,-179.06987726933687,-0.003942,False,,False,,,,,30
49.141,4.66236853700002,-0.927734375,0.317138671875,-0.05517578125,27.022900763358777,-9.038167938931297,15.419847328244273,5469,-204,-5,120.16845703125,-183.4073087042245,-0.0065699999999999995,False,,False,,,,,30
49.141,4.6643699700000525,-0.927734375,0.317138671875,-0.05517578125,27.022900763358777,-9.038167938931297,15.419847328244273,5469,-204,-5,120.16845703125,-183.4073087042245,-0.0065699999999999995,False,,False,,,,,30
49.141,4.666372051000053,-0.927734375,0.317138671875,-0.05517578125,27.022900763358777,-9.038167938931297,15.419847328244273,5469,-204,-5,120.16845703125,-183.4073087042245,-0.0065699999999999995,False,,False,,,,,30
49.146,4.668372670000053,-0.9443359375,0.329833984375,-0.044921875,28.213740458015266,-7.786259541984733,15.267175572519083,5425,-181,-2,119.20166015625,-187.32593990660328,-0.002628,False,,False,,,,,30
49.146,4.670377731999906,-0.9443359375,0.329833984375,-0.044921875,28.213740458015266,-7.786259541984733,15.267175572519083,5425,-181,-2,119.20166015625,-187.32593990660328,-0.002628,False,,False,,,,,30
49.151,4.672376665000002,-0.958740234375,0.31591796875,-0.0498046875,31.69465648854962,-9.038167938931297,14.045801526717558,5387,-168,0,118.36669921875,-190.66211958348106,0.0,False,,False,,,,,30
49.151,4.674378949999891,-0.958740234375,0.31591796875,-0.0498046875,31.69465648854962,-9.038167938931297,14.045801526717558,5387,-168,0,118.36669921875,-190.66211958348106,0.0,False,,False,,,,,30
49.151,4.676380253999923,-0.958740234375,0.31591796875,-0.0498046875,31.69465648854962,-9.038167938931297,14.045801526717558,5387,-168,0,118.36669921875,-190.66211958348106,0.0,False,,False,,,,,30
49.156,4.678380834999871,-0.97021484375,0.2900390625,-0.04443359375,32.091603053435115,-9.526717557251908,12.458015267175572,5351,-153,4,117.57568359375,-193.1758705426901,0.005256,False,,False,,,,,30
49.156,4.68038500900002,-0.97021484375,0.2900390625,-0.04443359375,32.091603053435115,-9.526717557251908,12.458015267175572,5351,-153,4,117.57568359375,-193.1758705426901,0.005256,False,,False,,,,,30
49.161,4.682383718999972,-0.947021484375,0.30078125,-0.053955078125,31.297709923664122,-8.6412213740458,13.099236641221374,5319,-139,4,116.87255859375,-194.74186495214474,0.005256,False,,False,,,,,30
49.161,4.684385133999967,-0.947021484375,0.30078125,-0.053955078125,31.297709923664122,-8.6412213740458,13.099236641221374,5319,-139,4,116.87255859375,-194.74186495214474,0.005256,False,,False,,,,,30
49.161,4.686386993000042,-0.947021484375,0.30078125,-0.053955078125,31.297709923664122,-8.6412213740458,13.099236641221374,5319,-139,4,116.87255859375,-194.74186495214474,0.005256,False,,False,,,,,30
49.166000000000004,4.688390259000016,-0.955322265625,0.297607421875,-0.04833984375,32.06106870229007,-9.801526717557252,11.541984732824426,5290,-122,-1,116.2353515625,-195.28482613253203,-0.001314,False,,False,,,,,30
49.166000000000004,4.690389228999948,-0.955322265625,0.297607421875,-0.04833984375,32.06106870229007,-9.801526717557252,11.541984732824426,5290,-122,-1,116.2353515625,-195.28482613253203,-0.001314,False,,False,,,,,30
49.171,4.692393625000022,-0.96484375,0.317626953125,-0.04833984375,33.74045801526717,-8.946564885496183,12.0,5262,-127,-4,115.6201171875,-194.78838541649358,-0.005256,False,,False,,,,,30
49.171,4.69439279900007,-0.96484375,0.317626953125,-0.04833984375,33.74045801526717,-8.946564885496183,12.0,5262,-127,-4,115.6201171875,-194.78838541649358,-0.005256,False,,False,,,,,30
49.186,4.709217010999964,-0.943115234375,0.329345703125,-0.07275390625,30.900763358778626,-9.465648854961831,12.702290076335878,5161,-156,4,113.40087890625,-193.43957870020913,0.005256,False,,False,,,,,30
49.186,4.711213443999895,-0.943115234375,0.329345703125,-0.07275390625,30.900763358778626,-9.465648854961831,12.702290076335878,5161,-156,4,113.40087890625,-193.43957870020913,0.005256,False,,False,,,,,30
49.191,4.713214450999885,-0.973388671875,0.34814453125,-0.0576171875,34.47328244274809,-9.068702290076336,12.854961832061068,5131,-143,2,112.74169921875,-191.50283055240283,0.002628,False,,False,,,,,30
49.191,4.715214884000034,-0.973388671875,0.34814453125,-0.0576171875,34.47328244274809,-9.068702290076336,12.854961832061068,5131,-143,2,112.74169921875,-191.50283055240283,0.002628,False,,False,,,,,30
49.191,4.717216706000045,-0.973388671875,0.34814453125,-0.0576171875,34.47328244274809,-9.068702290076336,12.854961832061068,5131,-143,2,112.74169921875,-191.50283055240283,0.002628,False,,False,,,,,30
49.196,4.719218453999929,-0.954345703125,0.332275390625,-0.04736328125,34.9618320610687,-9.068702290076336,13.618320610687022,5098,-143,3,112.0166015625,-189.1231465561035,0.003942,False,,False,,,,,30
49.196,4.72121894299994,-0.954345703125,0.332275390625,-0.04736328125,34.9618320610687,-9.068702290076336,13.618320610687022,5098,-143,3,112.0166015625,-189.1231465561035,0.003942,False,,False,,,,,30
49.201,4.723221041999977,-0.93896484375,0.34619140625,-0.056396484375,33.19083969465649,-7.8473282442748085,16.061068702290076,5058,-178,1,111.1376953125,-186.55566415581157,0.001314,False,,False,,,,,30
49.201,4.725221957000031,-0.93896484375,0.34619140625,-0.056396484375,33.19083969465649,-7.8473282442748085,16.061068702290076,5058,-178,1,111.1376953125,-186.55566415581157,0.001314,False,,False,,,,,30
49.201,4.727227815999868,-0.93896484375,0.34619140625,-0.056396484375,33.19083969465649,-7.8473282442748085,16.061068702290076,5058,-178,1,111.1376953125,-186.55566415581157,0.001314,False,,False,,,,,30
49.206,4.729227359999868,-0.93408203125,0.320068359375,-0.06005859375,31.908396946564885,-9.068702290076336,15.48091603053435,5017,-182,0,110.23681640625,-184.15463545846535,0.0,False,,False,,,,,30
49.206,4.731227181999884,-0.93408203125,0.320068359375,-0.06005859375,31.908396946564885,-9.068702290076336,15.48091603053435,5017,-182,0,110.23681640625,-184.15463545846535,0.0,False,,False,,,,,30
49.211,4.7332283369999,-0.957763671875,0.346435546875,-0.049560546875,33.862595419847324,-7.969465648854961,16.641221374045802,4976,-172,2,109.3359375,-182.07098212536306,0.002628,False,,False,,,,,30
49.211,4.735230195999975,-0.957763671875,0.346435546875,-0.049560546875,33.862595419847324,-7.969465648854961,16.641221374045802,4976,-172,2,109.3359375,-182.07098212536306,0.002628,False,,False,,,,,30
49.211,4.737231351999981,-0.957763671875,0.346435546875,-0.049560546875,33.862595419847324,-7.969465648854961,16.641221374045802,4976,-172,2,109.3359375,-182.07098212536306,0.002628,False,,False,,,,,30
49.216,4.7392361919999075,-0.96875,0.33154296875,-0.065185546875,38.412213740458014,-8.48854961832061,15.572519083969466,4941,-147,2,108.56689453125,-180.20363697583304,0.002628,False,,False,,,,,30
49.216,4.7412344770000345,-0.96875,0.33154296875,-0.065185546875,38.412213740458014,-8.48854961832061,15.572519083969466,4941,-147,2,108.56689453125,-180.20363697583304,0.002628,False,,False,,,,,30
49.221000000000004,4.743239910000057,-0.957275390625,0.29638671875,-0.07568359375,36.36641221374045,-9.648854961832061,14.381679389312977,4907,-154,0,107.81982421875,-178.33753008251185,0.0,False,,False,,,,,30
49.221000000000004,4.745236917000057,-0.957275390625,0.29638671875,-0.07568359375,36.36641221374045,-9.648854961832061,14.381679389312977,4907,-154,0,107.81982421875,-178.33753008251185,0.0,False,,False,,,,,30
49.226,4.747242553999968,-0.988525390625,0.306884765625,-0.059326171875,37.038167938931295,-8.946564885496183,14.931297709923664,4874,-148,-6,107.0947265625,-176.35625328057571,-0.007884,False,,False,,,,,30
49.226,4.749243708999984,-0.988525390625,0.306884765625,-0.059326171875,37.038167938931295,-8.946564885496183,14.931297709923664,4874,-148,-6,107.0947265625,-176.35625328057571,-0.007884,False,,False,,,,,30
49.226,4.7512456609999845,-0.988525390625,0.306884765625,-0.059326171875,37.038167938931295,-8.946564885496183,14.931297709923664,4874,-148,-6,107.0947265625,-176.35625328057571,-0.007884,False,,False,,,,,30
49.231,4.7532442049998735,-0.9560546875,0.309814453125,-0.076904296875,35.75572519083969,-9.16030534351145,14.625954198473282,4842,-133,-6,106.3916015625,-174.24359818826963,-0.007884,False,,False,,,,,30
49.231,4.755249118999927,-0.9560546875,0.309814453125,-0.076904296875,35.75572519083969,-9.16030534351145,14.625954198473282,4842,-133,-6,106.3916015625,-174.24359818826963,-0.007884,False,,False,,,,,30
49.231,4.757247737999933,-0.9560546875,0.309814453125,-0.076904296875,35.75572519083969,-9.16030534351145,14.625954198473282,4842,-133,-6,106.3916015625,-174.24359818826963,-0.007884,False,,False,,,,,30
49.236000000000004,4.759252910999976,-0.9638671875,0.34033203125,-0.081787109375,37.221374045801525,-9.282442748091603,14.106870229007633,4810,-132,-2,105.6884765625,-172.00381427968787,-0.002628,False,,False,,,,,30
49.236000000000004,4.761253011000008,-0.9638671875,0.34033203125,-0.081787109375,37.221374045801525,-9.282442748091603,14.106870229007633,4810,-132,-2,105.6884765625,-172.00381427968787,-0.002628,False,,False,,,,,30
49.241,4.76325572199994,-0.953857421875,0.338134765625,-0.072265625,35.786259541984734,-9.893129770992367,13.587786259541984,4776,-158,-10,104.94140625,-169.70596318728568,-0.013139999999999999,False,,False,,,,,30
49.241,4.765253451000035,-0.953857421875,0.338134765625,-0.072265625,35.786259541984734,-9.893129770992367,13.587786259541984,4776,-158,-10,104.94140625,-169.70596318728568,-0.013139999999999999,False,,False,,,,,30
49.241,4.7672574030000305,-0.953857421875,0.338134765625,-0.072265625,35.786259541984734,-9.893129770992367,13.587786259541984,4776,-158,-10,104.94140625,-169.70596318728568,-0.013139999999999999,False,,False,,,,,30
49.246,4.769258594999883,-0.965087890625,0.364013671875,-0.058349609375,36.61068702290076,-8.763358778625953,14.931297709923664,4737,-172,-2,104.08447265625,-167.53602798670536,-0.002628,False,,False,,,,,30
49.246,4.771258268999873,-0.965087890625,0.364013671875,-0.058349609375,36.61068702290076,-8.763358778625953,14.931297709923664,4737,-172,-2,104.08447265625,-167.53602798670536,-0.002628,False,,False,,,,,30
49.251,4.773259535000079,-0.92138671875,0.35791015625,-0.072265625,35.725190839694655,-8.67175572519084,14.167938931297709,4697,-173,1,103.20556640625,-165.71151958421427,0.001314,False,,False,,,,,30
49.251,4.775260856999921,-0.92138671875,0.35791015625,-0.072265625,35.725190839694655,-8.67175572519084,14.167938931297709,4697,-173,1,103.20556640625,-165.71151958421427,0.001314,False,,False,,,,,30
49.256,4.777262771999858,-0.915771484375,0.357666015625,-0.07373046875,39.725190839694655,-9.038167938931297,14.65648854961832,4655,-189,-4,102.28271484375,-164.34586764571034,-0.005256,False,,False,,,,,29
49.256,4.779266241999949,-0.915771484375,0.357666015625,-0.07373046875,39.725190839694655,-9.038167938931297,14.65648854961832,4655,-189,-4,102.28271484375,-164.34586764571034,-0.005256,False,,False,,,,,29
49.256,4.781266137999864,-0.915771484375,0.357666015625,-0.07373046875,39.725190839694655,-9.038167938931297,14.65648854961832,4655,-189,-4,102.28271484375,-164.34586764571034,-0.005256,False,,False,,,,,29
49.261,4.7832661449999705,-0.95361328125,0.365478515625,-0.052001953125,40.06106870229007,-9.16030534351145,15.633587786259541,4612,-193,0,101.337890625,-163.47963930051117,0.0,False,,False,,,,,29
49.261,4.785268225999971,-0.95361328125,0.365478515625,-0.052001953125,40.06106870229007,-9.16030534351145,15.633587786259541,4612,-193,0,101.337890625,-163.47963930051117,0.0,False,,False,,,,,29
49.266,4.787269769999966,-0.911865234375,0.335205078125,-0.07568359375,38.045801526717554,-9.709923664122137,14.534351145038167,4564,-207,-1,100.283203125,-163.18730836992734,-0.001314,False,,False,,,,,29
49.266,4.78927316599993,-0.911865234375,0.335205078125,-0.07568359375,38.045801526717554,-9.709923664122137,14.534351145038167,4564,-207,-1,100.283203125,-163.18730836992734,-0.001314,False,,False,,,,,29
49.266,4.791272321999941,-0.911865234375,0.335205078125,-0.07568359375,38.045801526717554,-9.709923664122137,14.534351145038167,4564,-207,-1,100.283203125,-163.18730836992734,-0.001314,False,,False,,,,,29
49.271,4.793273828999872,-0.962158203125,0.36328125,-0.050048828125,39.93893129770992,-9.404580152671755,14.412213740458014,4520,-186,-2,99.31640625,-163.49107789083826,-0.002628,False,,False,,,,,29
49.271,4.795275946999936,-0.962158203125,0.36328125,-0.050048828125,39.93893129770992,-9.404580152671755,14.412213740458014,4520,-186,-2,99.31640625,-163.49107789083826,-0.002628,False,,False,,,,,29
49.276,4.797277712999858,-0.954345703125,0.351806640625,-0.056396484375,46.045801526717554,-10.442748091603052,11.022900763358779,4486,-147,-2,98.5693359375,-164.08258844247655,-0.002628,False,,False,,,,,30
49.276,4.799282349999885,-0.954345703125,0.351806640625,-0.056396484375,46.045801526717554,-10.442748091603052,11.022900763358779,4486,-147,-2,98.5693359375,-164.08258844247655,-0.002628,False,,False,,,,,30
49.276,4.801280376000022,-0.954345703125,0.351806640625,-0.056396484375,46.045801526717554,-10.442748091603052,11.022900763358779,4486,-147,-2,98.5693359375,-164.08258844247655,-0.002628,False,,False,,,,,30
49.281,4.803283790000023,-0.931396484375,0.3056640625,-0.06689453125,45.587786259541986,-11.81679389312977,8.977099236641221,4453,-138,2,97.84423828125,-164.50853163915767,0.002628,False,,False,,,,,30
49.281,4.805283315999986,-0.931396484375,0.3056640625,-0.06689453125,45.587786259541986,-11.81679389312977,8.977099236641221,4453,-138,2,97.84423828125,-164.50853163915767,0.002628,False,,False,,,,,30
49.286,4.807285712000066,-0.969482421875,0.303955078125,-0.0419921875,47.38931297709924,-11.877862595419847,8.213740458015266,4424,-119,2,97.20703125,-164.5350448802968,0.002628,False,,False,,,,,30
49.286,4.809288811999977,-0.969482421875,0.303955078125,-0.0419921875,47.38931297709924,-11.877862595419847,8.213740458015266,4424,-119,2,97.20703125,-164.5350448802968,0.002628,False,,False,,,,,30
49.286,4.811290577999898,-0.969482421875,0.303955078125,-0.0419921875,47.38931297709924,-11.877862595419847,8.213740458015266,4424,-119,2,97.20703125,-164.5350448802968,0.002628,False,,False,,,,,30
49.291000000000004,4.813288491999856,-0.932373046875,0.298095703125,-0.06103515625,46.13740458015267,-12.122137404580153,8.15267175572519,4396,-127,3,96.591796875,-164.06762267568308,0.003942,False,,False,,,,,30
49.291000000000004,4.815293222000037,-0.932373046875,0.298095703125,-0.06103515625,46.13740458015267,-12.122137404580153,8.15267175572519,4396,-127,3,96.591796875,-164.06762267568308,0.003942,False,,False,,,,,30
49.296,4.8172968209999,-0.963623046875,0.295166015625,-0.057373046875,47.75572519083969,-13.282442748091603,6.8396946564885495,4372,-100,4,96.064453125,-163.03430227046348,0.005256,False,,False,,,,,30
49.296,4.81930034700008,-0.963623046875,0.295166015625,-0.057373046875,47.75572519083969,-13.282442748091603,6.8396946564885495,4372,-100,4,96.064453125,-163.03430227046348,0.005256,False,,False,,,,,30
49.296,4.821300464999922,-0.963623046875,0.295166015625,-0.057373046875,47.75572519083969,-13.282442748091603,6.8396946564885495,4372,-100,4,96.064453125,-163.03430227046348,0.005256,False,,False,,,,,30
49.301,4.823302045999981,-0.938232421875,0.3115234375,-0.069580078125,44.79389312977099,-12.732824427480915,8.335877862595419,4339,-149,6,95.33935546875,-161.54219170486073,0.007884,False,,False,,,,,30
49.301,4.82530298000006,-0.938232421875,0.3115234375,-0.069580078125,44.79389312977099,-12.732824427480915,8.335877862595419,4339,-149,6,95.33935546875,-161.54219170486073,0.007884,False,,False,,,,,30
49.306000000000004,4.827307598000061,-0.93994140625,0.30615234375,-0.065185546875,42.717557251908396,-13.282442748091603,8.213740458015266,4302,-168,0,94.5263671875,-159.9740868989306,0.0,False,,False,,,,,30
49.306000000000004,4.829311326999914,-0.93994140625,0.30615234375,-0.065185546875,42.717557251908396,-13.282442748091603,8.213740458015266,4302,-168,0,94.5263671875,-159.9740868989306,0.0,False,,False,,,,,30
49.306000000000004,4.8313147789999675,-0.93994140625,0.30615234375,-0.065185546875,42.717557251908396,-13.282442748091603,8.213740458015266,4302,-168,0,94.5263671875,-159.9740868989306,0.0,False,,False,,,,,30
49.311,4.8333156009998675,-0.939453125,0.3388671875,-0.0625,41.9236641221374,-11.48091603053435,10.50381679389313,4254,-213,-4,93.4716796875,-158.81071440681126,-0.005256,False,,False,,,,,30
49.311,4.835320255999932,-0.939453125,0.3388671875,-0.0625,41.9236641221374,-11.48091603053435,10.50381679389313,4254,-213,-4,93.4716796875,-158.81071440681126,-0.005256,False,,False,,,,,30
49.316,4.8373232629999166,-0.937744140625,0.334228515625,-0.06396484375,43.63358778625954,-10.625954198473282,10.900763358778626,4204,-224,0,92.373046875,-158.4486664327415,0.0,False,,False,,,,,30
49.316,4.839323362999949,-0.937744140625,0.334228515625,-0.06396484375,43.63358778625954,-10.625954198473282,10.900763358778626,4204,-224,0,92.373046875,-158.4486664327415,0.0,False,,False,,,,,30
49.316,4.8413239809999595,-0.937744140625,0.334228515625,-0.06396484375,43.63358778625954,-10.625954198473282,10.900763358778626,4204,-224,0,92.373046875,-158.4486664327415,0.0,False,,False,,,,,30
49.321,4.843325117999939,-0.9267578125,0.30615234375,-0.07568359375,44.030534351145036,-11.511450381679388,11.236641221374045,4148,-242,-2,91.142578125,-159.09694497619822,-0.002628,False,,False,,,,,30
49.321,4.84532706899995,-0.9267578125,0.30615234375,-0.07568359375,44.030534351145036,-11.511450381679388,11.236641221374045,4148,-242,-2,91.142578125,-159.09694497619822,-0.002628,False,,False,,,,,30
49.326,4.8473285210000085,-0.912109375,0.282470703125,-0.07568359375,42.93129770992366,-10.625954198473282,11.053435114503817,4091,-250,-7,89.89013671875,-160.8203927971596,-0.009198,False,,False,,,,,30
49.326,4.849329194999882,-0.912109375,0.282470703125,-0.07568359375,42.93129770992366,-10.625954198473282,11.053435114503817,4091,-250,-7,89.89013671875,-160.8203927971596,-0.009198,False,,False,,,,,30
49.326,4.851331997999978,-0.912109375,0.282470703125,-0.07568359375,42.93129770992366,-10.625954198473282,11.053435114503817,4091,-250,-7,89.89013671875,-160.8203927971596,-0.009198,False,,False,,,,,30
49.331,4.853332874999978,-0.96142578125,0.294921875,-0.05517578125,44.091603053435115,-10.442748091603052,11.17557251908397,4037,-238,-5,88.70361328125,-163.49856345575486,-0.0065699999999999995,False,,False,,,,,30
49.331,4.855336826999974,-0.96142578125,0.294921875,-0.05517578125,44.091603053435115,-10.442748091603052,11.17557251908397,4037,-238,-5,88.70361328125,-163.49856345575486,-0.0065699999999999995,False,,False,,,,,30
49.336,4.85733924200008,-0.943359375,0.234130859375,-0.07958984375,46.900763358778626,-11.694656488549619,9.007633587786259,3987,-215,-9,87.60498046875,-166.79397229802584,-0.011826,False,,False,,,,,30
49.336,4.859338692999927,-0.943359375,0.234130859375,-0.07958984375,46.900763358778626,-11.694656488549619,9.007633587786259,3987,-215,-9,87.60498046875,-166.79397229802584,-0.011826,False,,False,,,,,30
49.336,4.861340607999864,-0.943359375,0.234130859375,-0.07958984375,46.900763358778626,-11.694656488549619,9.007633587786259,3987,-215,-9,87.60498046875,-166.79397229802584,-0.011826,False,,False,,,,,30
49.341,4.863342817999865,-0.984375,0.254150390625,-0.056884765625,46.3206106870229,-11.053435114503817,9.770992366412214,3939,-208,-3,86.55029296875,-170.35147923323953,-0.003942,False,,False,,,,,30
49.341,4.865341529000034,-0.984375,0.254150390625,-0.056884765625,46.3206106870229,-11.053435114503817,9.770992366412214,3939,-208,-3,86.55029296875,-170.35147923323953,-0.003942,False,,False,,,,,30
49.346000000000004,4.8673436100000345,-0.957275390625,0.226806640625,-0.075927734375,45.160305343511446,-11.908396946564885,8.977099236641221,3891,-207,2,85.49560546875,-173.9495485135078,0.002628,False,,False,,,,,30
49.346000000000004,4.869346210000003,-0.957275390625,0.226806640625,-0.075927734375,45.160305343511446,-11.908396946564885,8.977099236641221,3891,-207,2,85.49560546875,-173.9495485135078,0.002628,False,,False,,,,,30
49.346000000000004,4.871346605999861,-0.957275390625,0.226806640625,-0.075927734375,45.160305343511446,-11.908396946564885,8.977099236641221,3891,-207,2,85.49560546875,-173.9495485135078,0.002628,False,,False,,,,,30
49.351,4.873347557999978,-0.9541015625,0.263671875,-0.064453125,42.93129770992366,-10.50381679389313,10.167938931297709,3838,-238,-2,84.3310546875,-177.5771983785653,-0.002628,False,,False,,,,,30
49.351,4.875348953999946,-0.9541015625,0.263671875,-0.064453125,42.93129770992366,-10.50381679389313,10.167938931297709,3838,-238,-2,84.3310546875,-177.5771983785653,-0.002628,False,,False,,,,,30
49.356,4.87734981299991,-0.925048828125,0.259521484375,-0.075439453125,43.05343511450381,-10.99236641221374,10.351145038167939,3782,-247,-3,83.1005859375,-181.3839625003409,-0.003942,False,,False,,,,,30
49.356,4.879352524000069,-0.925048828125,0.259521484375,-0.075439453125,43.05343511450381,-10.99236641221374,10.351145038167939,3782,-247,-3,83.1005859375,-181.3839625003409,-0.003942,False,,False,,,,,30
49.356,4.881352697000011,-0.925048828125,0.259521484375,-0.075439453125,43.05343511450381,-10.99236641221374,10.351145038167939,3782,-247,-3,83.1005859375,-181.3839625003409,-0.003942,False,,False,,,,,30
49.361000000000004,4.883354408000059,-0.95458984375,0.293212890625,-0.0546875,44.51908396946565,-9.526717557251908,11.206106870229007,3726,-243,1,81.8701171875,-185.46060176085584,0.001314,False,,False,,,,,30
49.361000000000004,4.885355729999901,-0.95458984375,0.293212890625,-0.0546875,44.51908396946565,-9.526717557251908,11.206106870229007,3726,-243,1,81.8701171875,-185.46060176085584,0.001314,False,,False,,,,,30
