state_time,loop_time,accel_x,accel_y,accel_z,gyro_x,gyro_y,gyro_z,motor_angle,motor_velocity,motor_current,hip_angle,hip_velocity,hip_torque_from_current,did_heel_strike,gait_phase,did_toe_off,commanded_current,commanded_position,commanded_torque,commanded_voltage,temperature
181.183,2.363668741000083,-0.955322265625,0.260009765625,-0.04443359375,0.6412213740458015,-0.42748091603053434,0.7938931297709924,6498,-3,0,142.7783203125,0.02242595781721391,0.0,False,,False,,,,,30
181.183,2.365700471000082,-0.955322265625,0.260009765625,-0.04443359375,0.6412213740458015,-0.42748091603053434,0.7938931297709924,6498,-3,0,142.7783203125,0.02242595781721391,0.0,False,,False,,,,,30
181.183,2.3676730330000737,-0.955322265625,0.260009765625,-0.04443359375,0.6412213740458015,-0.42748091603053434,0.7938931297709924,6498,-3,0,142.7783203125,0.02242595781721391,0.0,False,,False,,,,,30
181.18800000000002,2.3696759110000585,-0.960205078125,0.2568359375,-0.04296875,0.7938931297709924,-0.366412213740458,0.8854961832061068,6499,5,-4,142.80029296875,-0.08268231825232487,-0.005256,False,,False,,,,,30
181.18800000000002,2.371679474000075,-0.960205078125,0.2568359375,-0.04296875,0.7938931297709924,-0.366412213740458,0.8854961832061068,6499,5,-4,142.80029296875,-0.08268231825232487,-0.005256,False,,False,,,,,30
181.193,2.373679536000054,-0.95703125,0.259033203125,-0.042724609375,0.6717557251908397,-0.42748091603053434,0.916030534351145,6498,4,1,142.7783203125,-0.198595168889178,0.001314,False,,False,,,,,30
181.193,2.375774117000219,-0.95703125,0.259033203125,-0.042724609375,0.6717557251908397,-0.42748091603053434,0.916030534351145,6498,4,1,142.7783203125,-0.198595168889178,0.001314,False,,False,,,,,30
181.193,2.3777750130000186,-0.95703125,0.259033203125,-0.042724609375,0.6717557251908397,-0.42748091603053434,0.916030534351145,6498,4,1,142.7783203125,-0.198595168889178,0.001314,False,,False,,,,,30
181.198,2.379776539000204,-0.96044921875,0.25537109375,-0.043701171875,0.916030534351145,-0.183206106870229,1.0381679389312977,6498,-9,-4,142.7783203125,-0.3086738793736573,-0.005256,False,,False,,,,,30
181.198,2.3817783240001518,-0.96044921875,0.25537109375,-0.043701171875,0.916030534351145,-0.183206106870229,1.0381679389312977,6498,-9,-4,142.7783203125,-0.3086738793736573,-0.005256,False,,False,,,,,30
181.203,2.3842776980000053,-0.9599609375,0.253662109375,-0.042724609375,0.732824427480916,-0.3969465648854962,0.9770992366412213,6499,0,-4,142.80029296875,-0.3963580820529119,-0.005256,False,,False,,,,,30
181.203,2.3867589060000682,-0.9599609375,0.253662109375,-0.042724609375,0.732824427480916,-0.3969465648854962,0.9770992366412213,6499,0,-4,142.80029296875,-0.3963580820529119,-0.005256,False,,False,,,,,30
181.208,2.38886932000014,-0.961181640625,0.251708984375,-0.04150390625,0.7633587786259541,-0.2748091603053435,1.2519083969465647,6499,2,2,142.80029296875,-0.4321925714949121,0.002628,False,,False,,,,,30
181.208,2.391062160000047,-0.961181640625,0.251708984375,-0.04150390625,0.7633587786259541,-0.2748091603053435,1.2519083969465647,6499,2,2,142.80029296875,-0.4321925714949121,0.002628,False,,False,,,,,30
181.208,2.393139407000035,-0.961181640625,0.251708984375,-0.04150390625,0.7633587786259541,-0.2748091603053435,1.2519083969465647,6499,2,2,142.80029296875,-0.4321925714949121,0.002628,False,,False,,,,,30
181.213,2.395417820000148,-0.962158203125,0.255859375,-0.04150390625,0.7022900763358778,-0.12213740458015267,1.129770992366412,6498,-3,0,142.7783203125,-0.4559314931495919,0.0,False,,False,,,,,30
181.213,2.3974184570001853,-0.962158203125,0.255859375,-0.04150390625,0.7022900763358778,-0.12213740458015267,1.129770992366412,6498,-3,0,142.7783203125,-0.4559314931495919,0.0,False,,False,,,,,30
181.21800000000002,2.399421482000207,-0.962158203125,0.25146484375,-0.044189453125,0.732824427480916,0.0,1.282442748091603,6498,1,-2,142.7783203125,-0.5010315133260709,-0.002628,False,,False,,,,,30
181.21800000000002,2.4014204340001015,-0.962158203125,0.25146484375,-0.044189453125,0.732824427480916,0.0,1.282442748091603,6498,1,-2,142.7783203125,-0.5010315133260709,-0.002628,False,,False,,,,,30
181.21800000000002,2.403422626000065,-0.962158203125,0.25146484375,-0.044189453125,0.732824427480916,0.0,1.282442748091603,6498,1,-2,142.7783203125,-0.5010315133260709,-0.002628,False,,False,,,,,30
181.223,2.405421393000097,-0.9619140625,0.25390625,-0.04296875,0.5190839694656488,0.030534351145038167,1.2519083969465647,6499,4,0,142.80029296875,-0.5315301164082565,0.0,False,,False,,,,,30
181.228,2.409603739000204,-0.96435546875,0.254150390625,-0.0380859375,0.4580152671755725,-0.030534351145038167,1.3740458015267174,6498,-2,-2,142.7783203125,-0.5334472635137923,-0.002628,False,,False,,,,,30
181.228,2.411893041000212,-0.96435546875,0.254150390625,-0.0380859375,0.4580152671755725,-0.030534351145038167,1.3740458015267174,6498,-2,-2,142.7783203125,-0.5334472635137923,-0.002628,False,,False,,,,,30
181.233,2.413991770000166,-0.963623046875,0.251953125,-0.037841796875,0.549618320610687,-0.030534351145038167,1.3435114503816794,6498,-5,2,142.7783203125,-0.5432399521143926,0.002628,False,,False,,,,,30
181.233,2.415994221000119,-0.963623046875,0.251953125,-0.037841796875,0.549618320610687,-0.030534351145038167,1.3435114503816794,6498,-5,2,142.7783203125,-0.5432399521143926,0.002628,False,,False,,,,,30
181.233,2.4182544490001874,-0.963623046875,0.251953125,-0.037841796875,0.549618320610687,-0.030534351145038167,1.3435114503816794,6498,-5,2,142.7783203125,-0.5432399521143926,0.002628,False,,False,,,,,30
181.238,2.4203928630001883,-0.96337890625,0.25390625,-0.038818359375,0.3969465648854962,0.0916030534351145,1.4045801526717556,6498,-7,0,142.7783203125,-0.5594840355512212,0.0,False,,False,,,,,30
181.238,2.4223928510000405,-0.96337890625,0.25390625,-0.038818359375,0.3969465648854962,0.0916030534351145,1.4045801526717556,6498,-7,0,142.7783203125,-0.5594840355512212,0.0,False,,False,,,,,30
181.243,2.424426451000045,-0.96337890625,0.248291015625,-0.038818359375,0.33587786259541985,0.061068702290076333,1.5572519083969465,6498,-1,-3,142.7783203125,-0.5649781921881918,-0.003942,False,,False,,,,,30
181.243,2.4263946800001577,-0.96337890625,0.248291015625,-0.038818359375,0.33587786259541985,0.061068702290076333,1.5572519083969465,6498,-1,-3,142.7783203125,-0.5649781921881918,-0.003942,False,,False,,,,,30
181.243,2.42839707600001,-0.96337890625,0.248291015625,-0.038818359375,0.33587786259541985,0.061068702290076333,1.5572519083969465,6498,-1,-3,142.7783203125,-0.5649781921881918,-0.003942,False,,False,,,,,30
181.248,2.4306983600001786,-0.96240234375,0.252197265625,-0.035400390625,0.24427480916030533,0.12213740458015267,1.3129770992366412,6498,-5,0,142.7783203125,-0.561393115013847,0.0,False,,False,,,,,30
181.248,2.432698959000163,-0.96240234375,0.252197265625,-0.035400390625,0.24427480916030533,0.12213740458015267,1.3129770992366412,6498,-5,0,142.7783203125,-0.561393115013847,0.0,False,,False,,,,,30
181.25300000000001,2.4346978180001315,-0.962890625,0.2529296875,-0.03857421875,0.2748091603053435,0.15267175572519084,1.5267175572519083,6498,-8,0,142.7783203125,-0.5502590059161332,0.0,False,,False,,,,,30
181.25300000000001,2.4366984000000684,-0.962890625,0.2529296875,-0.03857421875,0.2748091603053435,0.15267175572519084,1.5267175572519083,6498,-8,0,142.7783203125,-0.5502590059161332,0.0,False,,False,,,,,30
181.258,2.4387047960001382,-0.962890625,0.248779296875,-0.0380859375,0.3053435114503817,0.3053435114503817,1.4351145038167938,6498,0,1,142.7783203125,-0.5329662825958466,0.001314,False,,False,,,,,30
181.258,2.4407046360001914,-0.962890625,0.248779296875,-0.0380859375,0.3053435114503817,0.3053435114503817,1.4351145038167938,6498,0,1,142.7783203125,-0.5329662825958466,0.001314,False,,False,,,,,30
181.258,2.4428118090002044,-0.962890625,0.248779296875,-0.0380859375,0.3053435114503817,0.3053435114503817,1.4351145038167938,6498,0,1,142.7783203125,-0.5329662825958466,0.001314,False,,False,,,,,30
181.263,2.4448142240000834,-0.95947265625,0.250732421875,-0.038818359375,0.183206106870229,0.33587786259541985,1.4045801526717556,6498,0,-1,142.7783203125,-0.5107681953968249,-0.001314,False,,False,,,,,30
181.263,2.4468139720002,-0.95947265625,0.250732421875,-0.038818359375,0.183206106870229,0.33587786259541985,1.4045801526717556,6498,0,-1,142.7783203125,-0.5107681953968249,-0.001314,False,,False,,,,,30
181.268,2.448982904000104,-0.955810546875,0.25537109375,-0.037841796875,0.24427480916030533,0.4580152671755725,1.5572519083969465,6498,-5,-4,142.7783203125,-0.4847850051740943,-0.005256,False,,False,,,,,30
181.268,2.4509837810001045,-0.955810546875,0.25537109375,-0.037841796875,0.24427480916030533,0.4580152671755725,1.5572519083969465,6498,-5,-4,142.7783203125,-0.4847850051740943,-0.005256,False,,False,,,,,30
181.268,2.453068751000046,-0.955810546875,0.25537109375,-0.037841796875,0.24427480916030533,0.4580152671755725,1.5572519083969465,6498,-5,-4,142.7783203125,-0.4847850051740943,-0.005256,False,,False,,,,,30
181.273,2.455073647000063,-0.956298828125,0.25732421875,-0.038818359375,0.42748091603053434,0.3969465648854962,1.5877862595419847,6498,0,4,142.7783203125,-0.45600940751071484,0.005256,False,,False,,,,,30
181.273,2.4570715240001846,-0.956298828125,0.25732421875,-0.038818359375,0.42748091603053434,0.3969465648854962,1.5877862595419847,6498,0,4,142.7783203125,-0.45600940751071484,0.005256,False,,False,,,,,30
181.278,2.4591962900001363,-0.954345703125,0.25439453125,-0.041748046875,0.5190839694656488,0.33587786259541985,1.648854961832061,6499,3,-1,142.80029296875,-0.4093973291808316,-0.001314,False,,False,,,,,30
181.278,2.4611985190001633,-0.954345703125,0.25439453125,-0.041748046875,0.5190839694656488,0.33587786259541985,1.648854961832061,6499,3,-1,142.80029296875,-0.4093973291808316,-0.001314,False,,False,,,,,30
181.278,2.4631992490001267,-0.954345703125,0.25439453125,-0.041748046875,0.5190839694656488,0.33587786259541985,1.648854961832061,6499,3,-1,142.80029296875,-0.4093973291808316,-0.001314,False,,False,,,,,30
181.28300000000002,2.465200700000196,-0.962646484375,0.2587890625,-0.041748046875,0.4580152671755725,0.549618320610687,1.5267175572519083,6499,4,2,142.80029296875,-0.33261254032889204,0.002628,False,,False,,,,,30
181.28300000000002,2.467200948000027,-0.962646484375,0.2587890625,-0.041748046875,0.4580152671755725,0.549618320610687,1.5267175572519083,6499,4,2,142.80029296875,-0.33261254032889204,0.002628,False,,False,,,,,30
181.288,2.4692029180000645,-0.9580078125,0.25439453125,-0.0390625,0.8549618320610687,0.48854961832061067,1.648854961832061,6498,-5,3,142.7783203125,-0.2635112572507098,0.003942,False,,False,,,,,30
181.288,2.4712041290001707,-0.9580078125,0.25439453125,-0.0390625,0.8549618320610687,0.48854961832061067,1.648854961832061,6498,-5,3,142.7783203125,-0.2635112572507098,0.003942,False,,False,,,,,30
181.288,2.4732029510000757,-0.9580078125,0.25439453125,-0.0390625,0.8549618320610687,0.48854961832061067,1.648854961832061,6498,-5,3,142.7783203125,-0.2635112572507098,0.003942,False,,False,,,,,30
181.293,2.47520742100005,-0.96484375,0.25244140625,-0.042236328125,0.7938931297709924,0.549618320610687,1.6793893129770991,6498,0,-9,142.7783203125,-0.2336747007717968,-0.011826,False,,False,,,,,30
181.293,2.4772088910001457,-0.96484375,0.25244140625,-0.042236328125,0.7938931297709924,0.549618320610687,1.6793893129770991,6498,0,-9,142.7783203125,-0.2336747007717968,-0.011826,False,,False,,,,,30
181.298,2.4793319530001554,-0.96142578125,0.25048828125,-0.040771484375,0.8854961832061068,0.183206106870229,1.5572519083969465,6500,6,-3,142.822265625,-0.18939530917890435,-0.003942,False,,False,,,,,30
181.298,2.481332812000119,-0.96142578125,0.25048828125,-0.040771484375,0.8854961832061068,0.183206106870229,1.5572519083969465,6500,6,-3,142.822265625,-0.18939530917890435,-0.003942,False,,False,,,,,30
181.298,2.48343391100002,-0.96142578125,0.25048828125,-0.040771484375,0.8854961832061068,0.183206106870229,1.5572519083969465,6500,6,-3,142.822265625,-0.18939530917890435,-0.003942,False,,False,,,,,30
181.303,2.485433900000089,-0.95947265625,0.248291015625,-0.041015625,0.8549618320610687,0.0916030534351145,1.5877862595419847,6499,3,-5,142.80029296875,-0.10183491926273763,-0.0065699999999999995,False,,False,,,,,30
181.303,2.4874358880001637,-0.95947265625,0.248291015625,-0.041015625,0.8549618320610687,0.0916030534351145,1.5877862595419847,6499,3,-5,142.80029296875,-0.10183491926273763,-0.0065699999999999995,False,,False,,,,,30
181.308,2.4894372660000954,-0.962890625,0.247802734375,-0.04150390625,0.9465648854961831,0.21374045801526717,1.465648854961832,6499,-5,-4,142.80029296875,-0.027055712869427567,-0.005256,False,,False,,,,,30
181.308,2.491439051000043,-0.962890625,0.247802734375,-0.04150390625,0.9465648854961831,0.21374045801526717,1.465648854961832,6499,-5,-4,142.80029296875,-0.027055712869427567,-0.005256,False,,False,,,,,30
181.308,2.493439743000181,-0.962890625,0.247802734375,-0.04150390625,0.9465648854961831,0.21374045801526717,1.465648854961832,6499,-5,-4,142.80029296875,-0.027055712869427567,-0.005256,False,,False,,,,,30
181.31300000000002,2.4954405090002183,-0.962890625,0.2451171875,-0.041015625,0.6717557251908397,0.48854961832061067,1.5267175572519083,6498,1,-1,142.7783203125,0.0041088301294873765,-0.001314,False,,False,,,,,30
181.31300000000002,2.4974432760000127,-0.962890625,0.2451171875,-0.041015625,0.6717557251908397,0.48854961832061067,1.5267175572519083,6498,1,-1,142.7783203125,0.0041088301294873765,-0.001314,False,,False,,,,,30
181.318,2.499444894000135,-0.963623046875,0.246337890625,-0.03955078125,0.7633587786259541,0.42748091603053434,1.7099236641221374,6498,-5,3,142.7783203125,-0.0016914949882039995,0.003942,False,,False,,,,,30
181.318,2.5014463830000295,-0.963623046875,0.246337890625,-0.03955078125,0.7633587786259541,0.42748091603053434,1.7099236641221374,6498,-5,3,142.7783203125,-0.0016914949882039995,0.003942,False,,False,,,,,30
181.318,2.5034477789999983,-0.963623046875,0.246337890625,-0.03955078125,0.7633587786259541,0.42748091603053434,1.7099236641221374,6498,-5,3,142.7783203125,-0.0016914949882039995,0.003942,False,,False,,,,,30
181.323,2.5054494150001574,-0.961181640625,0.248779296875,-0.03759765625,0.9465648854961831,0.4580152671755725,1.6793893129770991,6499,1,0,142.80029296875,-0.006522916523438685,0.0,False,,False,,,,,30
181.323,2.507450978000179,-0.961181640625,0.248779296875,-0.03759765625,0.9465648854961831,0.4580152671755725,1.6793893129770991,6499,1,0,142.80029296875,-0.006522916523438685,0.0,False,,False,,,,,30
181.328,2.509453004000079,-0.963623046875,0.250244140625,-0.03515625,0.8244274809160305,0.6412213740458015,1.465648854961832,6498,-1,0,142.7783203125,0.005442394317480809,0.0,False,,False,,,,,30
181.328,2.511453789000143,-0.963623046875,0.250244140625,-0.03515625,0.8244274809160305,0.6412213740458015,1.465648854961832,6498,-1,0,142.7783203125,0.005442394317480809,0.0,False,,False,,,,,30
181.333,2.5134558880001805,-0.966552734375,0.249755859375,-0.037353515625,0.9465648854961831,0.5190839694656488,1.465648854961832,6499,1,1,142.80029296875,0.015380690529487085,0.001314,False,,False,,,,,30
181.333,2.5154534700000113,-0.966552734375,0.249755859375,-0.037353515625,0.9465648854961831,0.5190839694656488,1.465648854961832,6499,1,1,142.80029296875,0.015380690529487085,0.001314,False,,False,,,,,30
181.333,2.5175413100000696,-0.966552734375,0.249755859375,-0.037353515625,0.9465648854961831,0.5190839694656488,1.465648854961832,6499,1,1,142.80029296875,0.015380690529487085,0.001314,False,,False,,,,,30
181.338,2.519542483000123,-0.96435546875,0.253173828125,-0.036376953125,0.7022900763358778,0.48854961832061067,1.3435114503816794,6499,-1,5,142.80029296875,0.03939362650753178,0.0065699999999999995,False,,False,,,,,30
181.338,2.5215412310001284,-0.96435546875,0.253173828125,-0.036376953125,0.7022900763358778,0.48854961832061067,1.3435114503816794,6499,-1,5,142.80029296875,0.03939362650753178,0.0065699999999999995,False,,False,,,,,30
181.34300000000002,2.5235661830001845,-0.97021484375,0.249755859375,-0.035888671875,0.8549618320610687,0.5801526717557252,1.5267175572519083,6499,10,1,142.80029296875,0.0748417238203388,0.001314,False,,False,,,,,30
181.34300000000002,2.5256913000000623,-0.97021484375,0.249755859375,-0.035888671875,0.8549618320610687,0.5801526717557252,1.5267175572519083,6499,10,1,142.80029296875,0.0748417238203388,0.001314,False,,False,,,,,30
181.34300000000002,2.5278764540000793,-0.97021484375,0.249755859375,-0.035888671875,0.8549618320610687,0.5801526717557252,1.5267175572519083,6499,10,1,142.80029296875,0.0748417238203388,0.001314,False,,False,,,,,30
181.348,2.53000438700019,-0.969482421875,0.25341796875,-0.033935546875,1.1603053435114503,0.366412213740458,1.4045801526717556,6499,-4,-8,142.80029296875,0.10343400891173668,-0.010512,False,,False,,,,,30
181.348,2.53200552300018,-0.969482421875,0.25341796875,-0.033935546875,1.1603053435114503,0.366412213740458,1.4045801526717556,6499,-4,-8,142.80029296875,0.10343400891173668,-0.010512,False,,False,,,,,30
181.353,2.5341405850001593,-0.97314453125,0.250732421875,-0.034912109375,1.282442748091603,0.42748091603053434,1.648854961832061,6499,-3,-9,142.80029296875,0.12587252520537373,-0.011826,False,,False,,,,,30
181.353,2.536141296000096,-0.97314453125,0.250732421875,-0.034912109375,1.282442748091603,0.42748091603053434,1.648854961832061,6499,-3,-9,142.80029296875,0.12587252520537373,-0.011826,False,,False,,,,,30
181.353,2.5382455800001935,-0.97314453125,0.250732421875,-0.034912109375,1.282442748091603,0.42748091603053434,1.648854961832061,6499,-3,-9,142.80029296875,0.12587252520537373,-0.011826,False,,False,,,,,30
181.358,2.5403517350000584,-0.974853515625,0.247314453125,-0.032470703125,1.3435114503816794,0.3053435114503817,1.83206106870229,6499,0,3,142.80029296875,0.14283415853672118,0.003942,False,,False,,,,,30
181.358,2.542352705000212,-0.974853515625,0.247314453125,-0.032470703125,1.3435114503816794,0.3053435114503817,1.83206106870229,6499,0,3,142.80029296875,0.14283415853672118,0.003942,False,,False,,,,,30
181.363,2.5444342300002063,-0.97607421875,0.246826171875,-0.033203125,1.3435114503816794,0.15267175572519084,1.8931297709923662,6499,0,2,142.80029296875,0.1549649274103665,0.002628,False,,False,,,,,30
181.363,2.5464351630000692,-0.97607421875,0.246826171875,-0.033203125,1.3435114503816794,0.15267175572519084,1.8931297709923662,6499,0,2,142.80029296875,0.1549649274103665,0.002628,False,,False,,,,,30
181.368,2.5484357820000696,-0.970458984375,0.236083984375,-0.039306640625,1.2213740458015268,0.4580152671755725,2.198473282442748,6498,0,-1,142.7783203125,0.1469600574798368,-0.001314,False,,False,,,,,30
181.368,2.550437752000107,-0.970458984375,0.236083984375,-0.039306640625,1.2213740458015268,0.4580152671755725,2.198473282442748,6498,0,-1,142.7783203125,0.1469600574798368,-0.001314,False,,False,,,,,30
181.368,2.5524395370000548,-0.970458984375,0.236083984375,-0.039306640625,1.2213740458015268,0.4580152671755725,2.198473282442748,6498,0,-1,142.7783203125,0.1469600574798368,-0.001314,False,,False,,,,,30
181.373,2.554440525000018,-0.965087890625,0.2333984375,-0.041015625,0.916030534351145,0.6106870229007634,2.2900763358778624,6498,-3,-2,142.7783203125,0.10629837196904449,-0.002628,False,,False,,,,,30
181.373,2.556441810000024,-0.965087890625,0.2333984375,-0.041015625,0.916030534351145,0.6106870229007634,2.2900763358778624,6498,-3,-2,142.7783203125,0.10629837196904449,-0.002628,False,,False,,,,,30
181.373,2.55844320600022,-0.965087890625,0.2333984375,-0.041015625,0.916030534351145,0.6106870229007634,2.2900763358778624,6498,-3,-2,142.7783203125,0.10629837196904449,-0.002628,False,,False,,,,,30
181.37800000000001,2.5604442690000724,-0.962158203125,0.230712890625,-0.040771484375,0.5801526717557252,0.5801526717557252,2.259541984732824,6499,3,0,142.80029296875,0.07071723955486663,0.0,False,,False,,,,,30
181.37800000000001,2.5624453690002156,-0.962158203125,0.230712890625,-0.040771484375,0.5801526717557252,0.5801526717557252,2.259541984732824,6499,3,0,142.80029296875,0.07071723955486663,0.0,False,,False,,,,,30
181.383,2.5644479130000946,-0.954345703125,0.22998046875,-0.043212890625,0.8549618320610687,0.8549618320610687,2.259541984732824,6499,3,-3,142.80029296875,0.07173609227932597,-0.003942,False,,False,,,,,30
181.383,2.566448216000026,-0.954345703125,0.22998046875,-0.043212890625,0.8549618320610687,0.8549618320610687,2.259541984732824,6499,3,-3,142.80029296875,0.07173609227932597,-0.003942,False,,False,,,,,30
181.388,2.56845020500009,-0.955810546875,0.23486328125,-0.04296875,0.6106870229007634,1.2519083969465647,2.259541984732824,6498,-1,0,142.7783203125,0.07154983596804007,0.0,False,,False,,,,,30
181.388,2.570452008000075,-0.955810546875,0.23486328125,-0.04296875,0.6106870229007634,1.2519083969465647,2.259541984732824,6498,-1,0,142.7783203125,0.07154983596804007,0.0,False,,False,,,,,30
181.388,2.5724533490001704,-0.955810546875,0.23486328125,-0.04296875,0.6106870229007634,1.2519083969465647,2.259541984732824,6498,-1,0,142.7783203125,0.07154983596804007,0.0,False,,False,,,,,30
181.393,2.5745683550001104,-0.956298828125,0.23779296875,-0.04443359375,0.6717557251908397,1.2519083969465647,2.3206106870229006,6499,2,0,142.80029296875,0.05444179013359865,0.0,False,,False,,,,,30
181.393,2.576565973000015,-0.956298828125,0.23779296875,-0.04443359375,0.6717557251908397,1.2519083969465647,2.3206106870229006,6499,2,0,142.80029296875,0.05444179013359865,0.0,False,,False,,,,,30
181.398,2.5785734990001856,-0.95947265625,0.237060546875,-0.04345703125,0.6412213740458015,1.3129770992366412,2.1068702290076335,6499,-2,3,142.80029296875,0.05524615736720709,0.003942,False,,False,,,,,30
181.398,2.580570413000032,-0.95947265625,0.237060546875,-0.04345703125,0.6412213740458015,1.3129770992366412,2.1068702290076335,6499,-2,3,142.80029296875,0.05524615736720709,0.003942,False,,False,,,,,30
181.398,2.5825755320001917,-0.95947265625,0.237060546875,-0.04345703125,0.6412213740458015,1.3129770992366412,2.1068702290076335,6499,-2,3,142.80029296875,0.05524615736720709,0.003942,False,,False,,,,,30
181.403,2.5845754460001444,-0.956298828125,0.236328125,-0.04345703125,0.4580152671755725,1.465648854961832,2.1068702290076335,6499,0,0,142.80029296875,0.07103481550334076,0.0,False,,False,,,,,30
181.403,2.5865757680001025,-0.956298828125,0.236328125,-0.04345703125,0.4580152671755725,1.465648854961832,2.1068702290076335,6499,0,0,142.80029296875,0.07103481550334076,0.0,False,,False,,,,,30
181.40800000000002,2.5885797939999975,-0.96240234375,0.23388671875,-0.0498046875,0.5801526717557252,1.6793893129770991,1.4961832061068703,6500,5,0,142.822265625,0.099139321074792,0.0,False,,False,,,,,30
181.40800000000002,2.5905967270000474,-0.96240234375,0.23388671875,-0.0498046875,0.5801526717557252,1.6793893129770991,1.4961832061068703,6500,5,0,142.822265625,0.099139321074792,0.0,False,,False,,,,,30
181.40800000000002,2.592786733000139,-0.96240234375,0.23388671875,-0.0498046875,0.5801526717557252,1.6793893129770991,1.4961832061068703,6500,5,0,142.822265625,0.099139321074792,0.0,False,,False,,,,,30
181.413,2.5949273500000345,-0.962646484375,0.231689453125,-0.046630859375,0.48854961832061067,1.618320610687023,1.1603053435114503,6502,5,0,142.8662109375,0.18489406365015904,0.0,False,,False,,,,,30
181.413,2.596929024000019,-0.962646484375,0.231689453125,-0.046630859375,0.48854961832061067,1.618320610687023,1.1603053435114503,6502,5,0,142.8662109375,0.18489406365015904,0.0,False,,False,,,,,30
181.418,2.5990354750001643,-0.963623046875,0.235107421875,-0.049072265625,0.549618320610687,1.8015267175572518,0.732824427480916,6505,10,5,142.93212890625,0.3813325917515081,0.0065699999999999995,False,,False,,,,,30
181.418,2.6010372410000855,-0.963623046875,0.235107421875,-0.049072265625,0.549618320610687,1.8015267175572518,0.732824427480916,6505,10,5,142.93212890625,0.3813325917515081,0.0065699999999999995,False,,False,,,,,30
181.418,2.603135155000018,-0.963623046875,0.235107421875,-0.049072265625,0.549618320610687,1.8015267175572518,0.732824427480916,6505,10,5,142.93212890625,0.3813325917515081,0.0065699999999999995,False,,False,,,,,30
181.423,2.6052470320000793,-0.96533203125,0.237548828125,-0.047607421875,0.4580152671755725,1.8015267175572518,0.2748091603053435,6509,20,4,143.02001953125,0.7312501734223418,0.005256,False,,False,,,,,30
181.423,2.607248206000122,-0.96533203125,0.237548828125,-0.047607421875,0.4580152671755725,1.8015267175572518,0.2748091603053435,6509,20,4,143.02001953125,0.7312501734223418,0.005256,False,,False,,,,,30
181.428,2.609362361000194,-0.96923828125,0.2294921875,-0.043212890625,1.4961832061068703,1.9236641221374045,-1.2213740458015268,6515,31,0,143.15185546875,1.2841664054191237,0.0,False,,False,,,,,30
181.428,2.6113743310002064,-0.96923828125,0.2294921875,-0.043212890625,1.4961832061068703,1.9236641221374045,-1.2213740458015268,6515,31,0,143.15185546875,1.2841664054191237,0.0,False,,False,,,,,30
181.428,2.6133754490001593,-0.96923828125,0.2294921875,-0.043212890625,1.4961832061068703,1.9236641221374045,-1.2213740458015268,6515,31,0,143.15185546875,1.2841664054191237,0.0,False,,False,,,,,30
181.433,2.615376789000038,-0.97412109375,0.212646484375,-0.040283203125,2.778625954198473,1.8015267175572518,-2.351145038167939,6526,55,0,143.3935546875,2.1581753626607774,0.0,False,,False,,,,,30
181.433,2.617378945000155,-0.97412109375,0.212646484375,-0.040283203125,2.778625954198473,1.8015267175572518,-2.351145038167939,6526,55,0,143.3935546875,2.1581753626607774,0.0,False,,False,,,,,30
181.43800000000002,2.619379952000145,-0.995849609375,0.1943359375,-0.0439453125,5.038167938931298,0.916030534351145,-4.67175572519084,6550,106,2,143.9208984375,3.6862255443626544,0.002628,False,,False,,,,,30
181.43800000000002,2.621380903000045,-0.995849609375,0.1943359375,-0.0439453125,5.038167938931298,0.916030534351145,-4.67175572519084,6550,106,2,143.9208984375,3.6862255443626544,0.002628,False,,False,,,,,30
181.443,2.62347244700004,-1.00390625,0.194580078125,-0.04345703125,6.045801526717557,1.0381679389312977,-5.312977099236641,6576,113,-3,144.4921875,6.264905149589888,-0.003942,False,,False,,,,,30
181.443,2.628320993000216,-1.00390625,0.194580078125,-0.04345703125,6.045801526717557,1.0381679389312977,-5.312977099236641,6576,113,-3,144.4921875,6.264905149589888,-0.003942,False,,False,,,,,30
181.453,2.6380360860000565,-0.982666015625,0.22998046875,-0.039306640625,-2.198473282442748,2.16793893129771,-5.038167938931298,6611,81,8,145.26123046875,9.821078342484496,0.010512,False,,False,,,,,30
181.458,2.640034167000067,-0.973388671875,0.260498046875,-0.04638671875,-0.183206106870229,2.4427480916030535,-4.977099236641221,6631,87,3,145.70068359375,13.945129016894015,0.003942,False,,False,,,,,30
181.458,2.642034489000025,-0.973388671875,0.260498046875,-0.04638671875,-0.183206106870229,2.4427480916030535,-4.977099236641221,6631,87,3,145.70068359375,13.945129016894015,0.003942,False,,False,,,,,30
181.463,2.6440399410000737,-0.9580078125,0.268310546875,-0.052001953125,-1.129770992366412,2.5343511450381677,-3.969465648854962,6643,53,5,145.96435546875,18.30182299177121,0.0065699999999999995,False,,False,,,,,30
181.463,2.646040374000222,-0.9580078125,0.268310546875,-0.052001953125,-1.129770992366412,2.5343511450381677,-3.969465648854962,6643,53,5,145.96435546875,18.30182299177121,0.0065699999999999995,False,,False,,,,,30
181.463,2.648041307000085,-0.9580078125,0.268310546875,-0.052001953125,-1.129770992366412,2.5343511450381677,-3.969465648854962,6643,53,5,145.96435546875,18.30182299177121,0.0065699999999999995,False,,False,,,,,30
181.46800000000002,2.650043073000006,-0.962890625,0.249267578125,-0.0498046875,-3.0839694656488548,3.7557251908396947,-3.0839694656488548,6653,37,6,146.18408203125,22.543475751725435,0.007884,False,,False,,,,,30
181.46800000000002,2.6520444510001653,-0.962890625,0.249267578125,-0.0498046875,-3.0839694656488548,3.7557251908396947,-3.0839694656488548,6653,37,6,146.18408203125,22.543475751725435,0.007884,False,,False,,,,,30
181.473,2.654209420000143,-0.9716796875,0.23486328125,-0.0546875,-0.9465648854961831,3.633587786259542,-4.702290076335878,6668,73,2,146.513671875,26.515961307668743,0.002628,False,,False,,,,,30
181.473,2.6562099460002173,-0.9716796875,0.23486328125,-0.0546875,-0.9465648854961831,3.633587786259542,-4.702290076335878,6668,73,2,146.513671875,26.515961307668743,0.002628,False,,False,,,,,30
181.473,2.658212990000038,-0.9716796875,0.23486328125,-0.0546875,-0.9465648854961831,3.633587786259542,-4.702290076335878,6668,73,2,146.513671875,26.515961307668743,0.002628,False,,False,,,,,30
181.478,2.66021086700016,-0.9921875,0.21826171875,-0.05419921875,2.5343511450381677,3.0839694656488548,-6.3206106870229,6693,112,-5,147.06298828125,30.49203737597849,-0.0065699999999999995,False,,False,,,,,30
181.478,2.6622143190002134,-0.9921875,0.21826171875,-0.05419921875,2.5343511450381677,3.0839694656488548,-6.3206106870229,6693,112,-5,147.06298828125,30.49203737597849,-0.0065699999999999995,False,,False,,,,,30
181.483,2.664215826000145,-0.982177734375,0.216552734375,-0.053955078125,2.16793893129771,2.931297709923664,-6.778625954198473,6718,107,-4,147.6123046875,34.81140884543964,-0.005256,False,,False,,,,,30
181.483,2.6662178890001087,-0.982177734375,0.216552734375,-0.053955078125,2.16793893129771,2.931297709923664,-6.778625954198473,6718,107,-4,147.6123046875,34.81140884543964,-0.005256,False,,False,,,,,30
181.483,2.6682190810001885,-0.982177734375,0.216552734375,-0.053955078125,2.16793893129771,2.931297709923664,-6.778625954198473,6718,107,-4,147.6123046875,34.81140884543964,-0.005256,False,,False,,,,,30
181.488,2.6702200700001413,-0.994873046875,0.204833984375,-0.040771484375,-0.549618320610687,2.8091603053435112,-8.366412213740457,6746,133,5,148.2275390625,39.562510078210984,0.0065699999999999995,False,,False,,,,,30
181.488,2.6722217430001365,-0.994873046875,0.204833984375,-0.040771484375,-0.549618320610687,2.8091603053435112,-8.366412213740457,6746,133,5,148.2275390625,39.562510078210984,0.0065699999999999995,False,,False,,,,,30
181.493,2.6742760830002226,-0.96484375,0.23583984375,-0.047607421875,-1.3740458015267174,3.4198473282442747,-7.66412213740458,6776,129,-4,148.88671875,44.73354438584493,-0.005256,False,,False,,,,,30
181.493,2.6762768870000855,-0.96484375,0.23583984375,-0.047607421875,-1.3740458015267174,3.4198473282442747,-7.66412213740458,6776,129,-4,148.88671875,44.73354438584493,-0.005256,False,,False,,,,,30
181.493,2.678278172000091,-0.96484375,0.23583984375,-0.047607421875,-1.3740458015267174,3.4198473282442747,-7.66412213740458,6776,129,-4,148.88671875,44.73354438584493,-0.005256,False,,False,,,,,30
181.498,2.680280068000002,-0.96142578125,0.231201171875,-0.04345703125,-2.2900763358778624,2.4122137404580153,-8.458015267175572,6807,137,0,149.56787109375,50.308552341808614,0.0,False,,False,,,,,30
181.498,2.682281501000034,-0.96142578125,0.231201171875,-0.04345703125,-2.2900763358778624,2.4122137404580153,-8.458015267175572,6807,137,0,149.56787109375,50.308552341808614,0.0,False,,False,,,,,30
181.50300000000001,2.6842836929999976,-0.983154296875,0.24169921875,-0.047119140625,-0.3053435114503817,2.9923664122137406,-8.6412213740458,6839,140,4,150.27099609375,56.22057397367782,0.005256,False,,False,,,,,30
181.50300000000001,2.686283737000167,-0.983154296875,0.24169921875,-0.047119140625,-0.3053435114503817,2.9923664122137406,-8.6412213740458,6839,140,4,150.27099609375,56.22057397367782,0.005256,False,,False,,,,,30
181.50300000000001,2.6883216700000503,-0.983154296875,0.24169921875,-0.047119140625,-0.3053435114503817,2.9923664122137406,-8.6412213740458,6839,140,4,150.27099609375,56.22057397367782,0.005256,False,,False,,,,,30
181.508,2.6903202140001667,-0.966064453125,0.253662109375,-0.047607421875,-3.297709923664122,2.717557251908397,-7.541984732824427,6865,113,3,150.84228515625,62.28134465560984,0.003942,False,,False,,,,,30
181.508,2.692323629000157,-0.966064453125,0.253662109375,-0.047607421875,-3.297709923664122,2.717557251908397,-7.541984732824427,6865,113,3,150.84228515625,62.28134465560984,0.003942,False,,False,,,,,30
181.513,2.694326617000115,-0.954345703125,0.280029296875,-0.04931640625,-4.549618320610687,4.091603053435114,-6.1679389312977095,6888,100,-1,151.34765625,68.1560262919904,-0.001314,False,,False,,,,,30
181.513,2.6963272360001156,-0.954345703125,0.280029296875,-0.04931640625,-4.549618320610687,4.091603053435114,-6.1679389312977095,6888,100,-1,151.34765625,68.1560262919904,-0.001314,False,,False,,,,,30
181.513,2.698328391000132,-0.954345703125,0.280029296875,-0.04931640625,-4.549618320610687,4.091603053435114,-6.1679389312977095,6888,100,-1,151.34765625,68.1560262919904,-0.001314,False,,False,,,,,30
181.518,2.7003292680001323,-0.91748046875,0.312255859375,-0.05078125,-8.244274809160306,4.519083969465648,-3.7557251908396947,6894,20,4,151.4794921875,73.32826050513155,0.005256,False,,False,,,,,30
181.518,2.7023316090001117,-0.91748046875,0.312255859375,-0.05078125,-8.244274809160306,4.519083969465648,-3.7557251908396947,6894,20,4,151.4794921875,73.32826050513155,0.005256,False,,False,,,,,30
181.523,2.704333542000086,-0.90673828125,0.322021484375,-0.046630859375,-10.259541984732824,5.190839694656488,-2.015267175572519,6893,0,2,151.45751953125,77.13720381022586,0.002628,False,,False,,,,,30
181.523,2.7063369010002134,-0.90673828125,0.322021484375,-0.046630859375,-10.259541984732824,5.190839694656488,-2.015267175572519,6893,0,2,151.45751953125,77.13720381022586,0.002628,False,,False,,,,,30
181.523,2.7083372780000445,-0.90673828125,0.322021484375,-0.046630859375,-10.259541984732824,5.190839694656488,-2.015267175572519,6893,0,2,151.45751953125,77.13720381022586,0.002628,False,,False,,,,,30
181.528,2.7103363410001293,-0.903564453125,0.298828125,-0.072998046875,-4.793893129770992,5.404580152671755,-1.7099236641221374,6893,-4,6,151.45751953125,79.27217808569382,0.007884,False,,False,,,,,30
181.528,2.7123393110000507,-0.903564453125,0.298828125,-0.072998046875,-4.793893129770992,5.404580152671755,-1.7099236641221374,6893,-4,6,151.45751953125,79.27217808569382,0.007884,False,,False,,,,,30
181.53300000000002,2.7143408740000723,-0.931884765625,0.284423828125,-0.059326171875,-3.6030534351145036,4.641221374045801,-1.83206106870229,6891,-7,-3,151.41357421875,79.86339826915031,-0.003942,False,,False,,,,,30
181.53300000000002,2.716340862000152,-0.931884765625,0.284423828125,-0.059326171875,-3.6030534351145036,4.641221374045801,-1.83206106870229,6891,-7,-3,151.41357421875,79.86339826915031,-0.003942,False,,False,,,,,30
181.53300000000002,2.7183432580000044,-0.931884765625,0.284423828125,-0.059326171875,-3.6030534351145036,4.641221374045801,-1.83206106870229,6891,-7,-3,151.41357421875,79.86339826915031,-0.003942,False,,False,,,,,30
181.538,2.720346154000026,-0.9345703125,0.2646484375,-0.059326171875,-4.213740458015267,4.702290076335878,-2.0763358778625953,6893,-1,-1,151.45751953125,79.16956660047978,-0.001314,False,,False,,,,,30
181.538,2.7223447730000316,-0.9345703125,0.2646484375,-0.059326171875,-4.213740458015267,4.702290076335878,-2.0763358778625953,6893,-1,-1,151.45751953125,79.16956660047978,-0.001314,False,,False,,,,,30
181.543,2.724346983000032,-0.939453125,0.259521484375,-0.05517578125,-5.1603053435114505,4.763358778625954,-2.16793893129771,6893,-1,-2,151.45751953125,77.47362681999101,-0.002628,False,,False,,,,,30
181.543,2.7263473240000167,-0.939453125,0.259521484375,-0.05517578125,-5.1603053435114505,4.763358778625954,-2.16793893129771,6893,-1,-2,151.45751953125,77.47362681999101,-0.002628,False,,False,,,,,30
181.543,2.7283502380000755,-0.939453125,0.259521484375,-0.05517578125,-5.1603053435114505,4.763358778625954,-2.16793893129771,6893,-1,-2,151.45751953125,77.47362681999101,-0.002628,False,,False,,,,,30
181.548,2.7303498380001656,-0.935791015625,0.280517578125,-0.0537109375,-5.038167938931298,4.366412213740458,-2.687022900763359,6893,6,7,151.45751953125,74.9633091307267,0.009198,False,,False,,,,,30
181.548,2.7323517160000392,-0.935791015625,0.280517578125,-0.0537109375,-5.038167938931298,4.366412213740458,-2.687022900763359,6893,6,7,151.45751953125,74.9633091307267,0.009198,False,,False,,,,,30
181.553,2.734355501000209,-0.943359375,0.2841796875,-0.05517578125,-4.213740458015267,3.969465648854962,-2.5038167938931295,6892,1,9,151.435546875,71.75982870594974,0.011826,False,,False,,,,,30
181.553,2.7363557850001143,-0.943359375,0.2841796875,-0.05517578125,-4.213740458015267,3.969465648854962,-2.5038167938931295,6892,1,9,151.435546875,71.75982870594974,0.011826,False,,False,,,,,30
181.553,2.738358256000083,-0.943359375,0.2841796875,-0.05517578125,-4.213740458015267,3.969465648854962,-2.5038167938931295,6892,1,9,151.435546875,71.75982870594974,0.011826,False,,False,,,,,30
181.558,2.7403588370000307,-0.939208984375,0.284423828125,-0.05712890625,-3.7862595419847325,3.6030534351145036,-2.778625954198473,6893,1,10,151.45751953125,68.02245310101856,0.013139999999999999,False,,False,,,,,30
181.558,2.742359436000015,-0.939208984375,0.284423828125,-0.05712890625,-3.7862595419847325,3.6030534351145036,-2.778625954198473,6893,1,10,151.45751953125,68.02245310101856,0.013139999999999999,False,,False,,,,,30
181.56300000000002,2.7443627030002062,-0.947021484375,0.279052734375,-0.05712890625,-3.6946564885496183,3.4198473282442747,-2.717557251908397,6893,1,5,151.45751953125,63.92408376932896,0.0065699999999999995,False,,False,,,,,30
181.56300000000002,2.7463631540001643,-0.947021484375,0.279052734375,-0.05712890625,-3.6946564885496183,3.4198473282442747,-2.717557251908397,6893,1,5,151.45751953125,63.92408376932896,0.0065699999999999995,False,,False,,,,,30
181.56300000000002,2.748365106000165,-0.947021484375,0.279052734375,-0.05712890625,-3.6946564885496183,3.4198473282442747,-2.717557251908397,6893,1,5,151.45751953125,63.92408376932896,0.0065699999999999995,False,,False,,,,,30
181.568,2.750363946000107,-0.95556640625,0.277587890625,-0.0517578125,-3.297709923664122,2.8091603053435112,-2.8702290076335877,6893,-5,-6,151.45751953125,59.58286906717843,-0.007884,False,,False,,,,,30
181.568,2.7523679350001657,-0.95556640625,0.277587890625,-0.0517578125,-3.297709923664122,2.8091603053435112,-2.8702290076335877,6893,-5,-6,151.45751953125,59.58286906717843,-0.007884,False,,False,,,,,30
181.573,2.754369515999997,-0.954833984375,0.271728515625,-0.053955078125,-3.0839694656488548,2.687022900763359,-3.114503816793893,6893,0,0,151.45751953125,55.085323072347066,0.0,False,,False,,,,,30
181.573,2.756371523000098,-0.954833984375,0.271728515625,-0.053955078125,-3.0839694656488548,2.687022900763359,-3.114503816793893,6893,0,0,151.45751953125,55.085323072347066,0.0,False,,False,,,,,30
181.573,2.7583729010000297,-0.954833984375,0.271728515625,-0.053955078125,-3.0839694656488548,2.687022900763359,-3.114503816793893,6893,0,0,151.45751953125,55.085323072347066,0.0,False,,False,,,,,30
181.578,2.7603742040000725,-0.95947265625,0.272216796875,-0.0576171875,-2.9618320610687023,2.351145038167939,-2.9923664122137406,6894,1,-1,151.4794921875,50.53796969712918,-0.001314,False,,False,,,,,30
181.578,2.762373934000152,-0.95947265625,0.272216796875,-0.0576171875,-2.9618320610687023,2.351145038167939,-2.9923664122137406,6894,1,-1,151.4794921875,50.53796969712918,-0.001314,False,,False,,,,,30
181.583,2.7643784220001635,-0.95849609375,0.2734375,-0.056884765625,-2.931297709923664,2.259541984732824,-3.2671755725190836,6894,4,1,151.4794921875,46.030710352192976,0.001314,False,,False,,,,,30
181.583,2.766377374000058,-0.95849609375,0.2734375,-0.056884765625,-2.931297709923664,2.259541984732824,-3.2671755725190836,6894,4,1,151.4794921875,46.030710352192976,0.001314,False,,False,,,,,30
181.583,2.768382029000122,-0.95849609375,0.2734375,-0.056884765625,-2.931297709923664,2.259541984732824,-3.2671755725190836,6894,4,1,151.4794921875,46.030710352192976,0.001314,False,,False,,,,,30
181.588,2.7703799060000165,-0.960693359375,0.268310546875,-0.058837890625,-2.931297709923664,2.1374045801526718,-3.297709923664122,6894,0,-1,151.4794921875,41.606396832548775,-0.001314,False,,False,,,,,30
181.588,2.7724352280001767,-0.960693359375,0.268310546875,-0.058837890625,-2.931297709923664,2.1374045801526718,-3.297709923664122,6894,0,-1,151.4794921875,41.606396832548775,-0.001314,False,,False,,,,,30
181.59300000000002,2.774437161000151,-0.95751953125,0.2666015625,-0.060546875,-2.8091603053435112,2.229007633587786,-3.450381679389313,6894,0,-4,151.4794921875,37.299702261253785,-0.005256,False,,False,,,,,30
181.59300000000002,2.7764385390000825,-0.95751953125,0.2666015625,-0.060546875,-2.8091603053435112,2.229007633587786,-3.450381679389313,6894,0,-4,151.4794921875,37.299702261253785,-0.005256,False,,False,,,,,30
181.59300000000002,2.7784401570002046,-0.95751953125,0.2666015625,-0.060546875,-2.8091603053435112,2.229007633587786,-3.450381679389313,6894,0,-4,151.4794921875,37.299702261253785,-0.005256,False,,False,,,,,30
181.598,2.7804406080001627,-0.960205078125,0.268310546875,-0.0595703125,-2.6564885496183206,2.16793893129771,-3.450381679389313,6895,5,-5,151.50146484375,33.16978161242891,-0.0065699999999999995,False,,False,,,,,30
181.598,2.782438541000147,-0.960205078125,0.268310546875,-0.0595703125,-2.6564885496183206,2.16793893129771,-3.450381679389313,6895,5,-5,151.50146484375,33.16978161242891,-0.0065699999999999995,False,,False,,,,,30
181.603,2.784443382000063,-0.952392578125,0.27099609375,-0.060546875,-2.5343511450381677,2.0763358778625953,-3.3893129770992365,6896,3,5,151.5234375,29.279513062194294,0.0065699999999999995,False,,False,,,,,30
181.603,2.786442389000058,-0.952392578125,0.27099609375,-0.060546875,-2.5343511450381677,2.0763358778625953,-3.3893129770992365,6896,3,5,151.5234375,29.279513062194294,0.0065699999999999995,False,,False,,,,,30
181.608,2.788446785000133,-0.954345703125,0.271484375,-0.061767578125,-2.1374045801526718,1.8931297709923662,-3.5114503816793894,6899,20,10,151.58935546875,25.69398088415515,0.013139999999999999,False,,False,,,,,30
181.608,2.790445107000096,-0.954345703125,0.271484375,-0.061767578125,-2.1374045801526718,1.8931297709923662,-3.5114503816793894,6899,20,10,151.58935546875,25.69398088415515,0.013139999999999999,False,,False,,,,,30
181.608,2.7924501880002026,-0.954345703125,0.271484375,-0.061767578125,-2.1374045801526718,1.8931297709923662,-3.5114503816793894,6899,20,10,151.58935546875,25.69398088415515,0.013139999999999999,False,,False,,,,,30
181.613,2.7944544920001135,-0.953369140625,0.27099609375,-0.0634765625,-1.7709923664122136,1.7404580152671756,-3.66412213740458,6900,12,6,151.611328125,22.447342213019763,0.007884,False,,False,,,,,30
181.613,2.796450276000087,-0.953369140625,0.27099609375,-0.0634765625,-1.7709923664122136,1.7404580152671756,-3.66412213740458,6900,12,6,151.611328125,22.447342213019763,0.007884,False,,False,,,,,30
181.618,2.7984543390000454,-0.952880859375,0.267333984375,-0.060302734375,-1.5267175572519083,1.8015267175572518,-3.7251908396946565,6903,17,-5,151.67724609375,19.53145213263762,-0.0065699999999999995,False,,False,,,,,30
181.618,2.8004533460000403,-0.952880859375,0.267333984375,-0.060302734375,-1.5267175572519083,1.8015267175572518,-3.7251908396946565,6903,17,-5,151.67724609375,19.53145213263762,-0.0065699999999999995,False,,False,,,,,30
181.618,2.802458741999999,-0.952880859375,0.267333984375,-0.060302734375,-1.5267175572519083,1.8015267175572518,-3.7251908396946565,6903,17,-5,151.67724609375,19.53145213263762,-0.0065699999999999995,False,,False,,,,,30
181.623,2.8044598050000786,-0.955322265625,0.264404296875,-0.0576171875,-1.0076335877862594,1.7099236641221374,-4.091603053435114,6906,24,-8,151.7431640625,16.966531589617457,-0.010512,False,,False,,,,,30
181.623,2.806458849000137,-0.955322265625,0.264404296875,-0.0576171875,-1.0076335877862594,1.7099236641221374,-4.091603053435114,6906,24,-8,151.7431640625,16.966531589617457,-0.010512,False,,False,,,,,30
181.62800000000001,2.808464208000032,-0.96044921875,0.2490234375,-0.059814453125,0.6412213740458015,0.8549618320610687,-5.221374045801526,6915,41,0,151.94091796875,14.859918345456729,0.0,False,,False,,,,,30
181.62800000000001,2.8104626780000217,-0.96044921875,0.2490234375,-0.059814453125,0.6412213740458015,0.8549618320610687,-5.221374045801526,6915,41,0,151.94091796875,14.859918345456729,0.0,False,,False,,,,,30
181.62800000000001,2.812466759000017,-0.96044921875,0.2490234375,-0.059814453125,0.6412213740458015,0.8549618320610687,-5.221374045801526,6915,41,0,151.94091796875,14.859918345456729,0.0,False,,False,,,,,30
181.633,2.8144681550002133,-0.97216796875,0.232666015625,-0.058349609375,3.145038167938931,0.366412213740458,-6.931297709923664,6932,78,-2,152.314453125,13.485821343417253,-0.002628,False,,False,,,,,30
181.633,2.816477533000125,-0.97216796875,0.232666015625,-0.058349609375,3.145038167938931,0.366412213740458,-6.931297709923664,6932,78,-2,152.314453125,13.485821343417253,-0.002628,False,,False,,,,,30
181.638,2.8184798360000514,-0.982177734375,0.2275390625,-0.057373046875,5.435114503816794,-0.0916030534351145,-8.6412213740458,6960,122,-2,152.9296875,13.270094221009762,-0.002628,False,,False,,,,,30
181.638,2.8204782320001414,-0.982177734375,0.2275390625,-0.057373046875,5.435114503816794,-0.0916030534351145,-8.6412213740458,6960,122,-2,152.9296875,13.270094221009762,-0.002628,False,,False,,,,,30
181.638,2.822482721000142,-0.982177734375,0.2275390625,-0.057373046875,5.435114503816794,-0.0916030534351145,-8.6412213740458,6960,122,-2,152.9296875,13.270094221009762,-0.002628,False,,False,,,,,30
181.643,2.82448463500009,-0.97802734375,0.23095703125,-0.056884765625,4.244274809160305,-0.12213740458015267,-8.427480916030534,6986,109,2,153.5009765625,14.472894879582237,0.002628,False,,False,,,,,30
181.643,2.826483013000143,-0.97802734375,0.23095703125,-0.056884765625,4.244274809160305,-0.12213740458015267,-8.427480916030534,6986,109,2,153.5009765625,14.472894879582237,0.002628,False,,False,,,,,30
181.648,2.8284879640000327,-0.988525390625,0.24609375,-0.04833984375,2.931297709923664,-0.15267175572519084,-9.038167938931297,7016,132,-6,154.16015625,17.02090784308695,-0.007884,False,,False,,,,,30
181.648,2.830486323000059,-0.988525390625,0.24609375,-0.04833984375,2.931297709923664,-0.15267175572519084,-9.038167938931297,7016,132,-6,154.16015625,17.02090784308695,-0.007884,False,,False,,,,,30
181.648,2.832490886000187,-0.988525390625,0.24609375,-0.04833984375,2.931297709923664,-0.15267175572519084,-9.038167938931297,7016,132,-6,154.16015625,17.02090784308695,-0.007884,False,,False,,,,,30
181.653,2.8344918750001398,-0.95263671875,0.271728515625,-0.05908203125,-0.24427480916030533,0.2748091603053435,-7.022900763358779,7039,93,-5,154.66552734375,20.642279906930945,-0.0065699999999999995,False,,False,,,,,30
181.653,2.8364905300002192,-0.95263671875,0.271728515625,-0.05908203125,-0.24427480916030533,0.2748091603053435,-7.022900763358779,7039,93,-5,154.66552734375,20.642279906930945,-0.0065699999999999995,False,,False,,,,,30
181.65800000000002,2.838495130000183,-0.948486328125,0.288818359375,-0.052490234375,-2.8702290076335877,-0.030534351145038167,-5.83206106870229,7053,55,-2,154.97314453125,24.807390430433784,-0.002628,False,,False,,,,,30
181.65800000000002,2.8404931920001673,-0.948486328125,0.288818359375,-0.052490234375,-2.8702290076335877,-0.030534351145038167,-5.83206106870229,7053,55,-2,154.97314453125,24.807390430433784,-0.002628,False,,False,,,,,30
181.65800000000002,2.842497699000205,-0.948486328125,0.288818359375,-0.052490234375,-2.8702290076335877,-0.030534351145038167,-5.83206106870229,7053,55,-2,154.97314453125,24.807390430433784,-0.002628,False,,False,,,,,30
181.663,2.8444985580001685,-0.947998046875,0.289306640625,-0.061767578125,-2.259541984732824,0.7633587786259541,-5.129770992366412,7069,65,-2,155.32470703125,29.001311370598465,-0.002628,False,,False,,,,,30
181.663,2.84650273200009,-0.947998046875,0.289306640625,-0.061767578125,-2.259541984732824,0.7633587786259541,-5.129770992366412,7069,65,-2,155.32470703125,29.001311370598465,-0.002628,False,,False,,,,,30
181.668,2.8485026280000056,-0.94189453125,0.295654296875,-0.072021484375,0.6412213740458015,1.0381679389312977,-4.2748091603053435,7081,61,-3,155.58837890625,33.01535534582824,-0.003942,False,,False,,,,,30
181.668,2.8505050240000855,-0.94189453125,0.295654296875,-0.072021484375,0.6412213740458015,1.0381679389312977,-4.2748091603053435,7081,61,-3,155.58837890625,33.01535534582824,-0.003942,False,,False,,,,,30
181.668,2.852504068000144,-0.94189453125,0.295654296875,-0.072021484375,0.6412213740458015,1.0381679389312977,-4.2748091603053435,7081,61,-3,155.58837890625,33.01535534582824,-0.003942,False,,False,,,,,30
181.673,2.8545067050001762,-0.93896484375,0.29150390625,-0.0654296875,-1.465648854961832,1.4045801526717556,-2.8396946564885495,7088,25,-2,155.7421875,36.645587752527284,-0.002628,False,,False,,,,,30
181.673,2.8565046380001604,-0.93896484375,0.29150390625,-0.0654296875,-1.465648854961832,1.4045801526717556,-2.8396946564885495,7088,25,-2,155.7421875,36.645587752527284,-0.002628,False,,False,,,,,30
181.678,2.858510256000045,-0.931396484375,0.284912109375,-0.061279296875,-3.66412213740458,1.8625954198473282,-1.7404580152671756,7087,-1,0,155.72021484375,39.55176693701552,0.0,False,,False,,,,,30
181.678,2.8605080970000927,-0.931396484375,0.284912109375,-0.061279296875,-3.66412213740458,1.8625954198473282,-1.7404580152671756,7087,-1,0,155.72021484375,39.55176693701552,0.0,False,,False,,,,,30
181.678,2.8625117710000723,-0.931396484375,0.284912109375,-0.061279296875,-3.66412213740458,1.8625954198473282,-1.7404580152671756,7087,-1,0,155.72021484375,39.55176693701552,0.0,False,,False,,,,,30
181.683,2.8645148330001575,-0.946044921875,0.297607421875,-0.05810546875,-3.1755725190839694,2.1068702290076335,-1.465648854961832,7088,4,3,155.7421875,41.50728476830654,0.003942,False,,False,,,,,30
181.683,2.866515229000015,-0.946044921875,0.297607421875,-0.05810546875,-3.1755725190839694,2.1068702290076335,-1.465648854961832,7088,4,3,155.7421875,41.50728476830654,0.003942,False,,False,,,,,30
181.68800000000002,2.8685179770000104,-0.9365234375,0.278564453125,-0.067626953125,-1.3435114503816794,1.7709923664122136,-1.4961832061068703,7086,0,-10,155.6982421875,42.527188158851594,-0.013139999999999999,False,,False,,,,,30
181.68800000000002,2.8705163730001004,-0.9365234375,0.278564453125,-0.067626953125,-1.3435114503816794,1.7709923664122136,-1.4961832061068703,7086,0,-10,155.6982421875,42.527188158851594,-0.013139999999999999,False,,False,,,,,30
181.68800000000002,2.872520436000059,-0.9365234375,0.278564453125,-0.067626953125,-1.3435114503816794,1.7709923664122136,-1.4961832061068703,7086,0,-10,155.6982421875,42.527188158851594,-0.013139999999999999,False,,False,,,,,30
181.693,2.874522536000086,-0.9482421875,0.271728515625,-0.06591796875,-1.4961832061068703,1.648854961832061,-1.3129770992366412,7086,-8,-6,155.6982421875,42.7172060607381,-0.007884,False,,False,,,,,30
181.693,2.876521376000028,-0.9482421875,0.271728515625,-0.06591796875,-1.4961832061068703,1.648854961832061,-1.3129770992366412,7086,-8,-6,155.6982421875,42.7172060607381,-0.007884,False,,False,,,,,30
181.698,2.878559975000144,-0.9482421875,0.265380859375,-0.061279296875,-1.5877862595419847,1.9236641221374045,-1.2519083969465647,7087,-3,0,155.72021484375,42.24153750677461,0.0,False,,False,,,,,30
181.698,2.8805267610000556,-0.9482421875,0.265380859375,-0.061279296875,-1.5877862595419847,1.9236641221374045,-1.2519083969465647,7087,-3,0,155.72021484375,42.24153750677461,0.0,False,,False,,,,,30
181.698,2.882529138000109,-0.9482421875,0.265380859375,-0.061279296875,-1.5877862595419847,1.9236641221374045,-1.2519083969465647,7087,-3,0,155.72021484375,42.24153750677461,0.0,False,,False,,,,,30
181.703,2.884529960000009,-0.952880859375,0.264892578125,-0.062744140625,-1.8015267175572518,1.648854961832061,-0.9770992366412213,7087,-1,0,155.72021484375,41.26320612430492,0.0,False,,False,,,,,30
181.703,2.886530338000057,-0.952880859375,0.264892578125,-0.062744140625,-1.8015267175572518,1.648854961832061,-0.9770992366412213,7087,-1,0,155.72021484375,41.26320612430492,0.0,False,,False,,,,,30
181.708,2.888593344000128,-0.95947265625,0.264404296875,-0.062255859375,-1.465648854961832,1.4351145038167938,-0.732824427480916,7086,3,-3,155.6982421875,39.84639627858502,-0.003942,False,,False,,,,,30
181.708,2.8905896660000963,-0.95947265625,0.264404296875,-0.062255859375,-1.465648854961832,1.4351145038167938,-0.732824427480916,7086,3,-3,155.6982421875,39.84639627858502,-0.003942,False,,False,,,,,30
181.708,2.892595062000055,-0.95947265625,0.264404296875,-0.062255859375,-1.465648854961832,1.4351145038167938,-0.732824427480916,7086,3,-3,155.6982421875,39.84639627858502,-0.003942,False,,False,,,,,30
181.713,2.8945951430000605,-0.963134765625,0.26318359375,-0.062255859375,-1.5877862595419847,1.0687022900763359,-0.48854961832061067,7087,-5,-2,155.72021484375,38.06710965247983,-0.002628,False,,False,,,,,30
181.713,2.896593595000013,-0.963134765625,0.26318359375,-0.062255859375,-1.5877862595419847,1.0687022900763359,-0.48854961832061067,7087,-5,-2,155.72021484375,38.06710965247983,-0.002628,False,,False,,,,,30
181.71800000000002,2.898597934999998,-0.958740234375,0.26171875,-0.064208984375,-1.5877862595419847,1.099236641221374,-0.7022900763358778,7087,-4,0,155.72021484375,36.04197133995365,0.0,False,,False,,,,,30
181.71800000000002,2.9005977760000405,-0.958740234375,0.26171875,-0.064208984375,-1.5877862595419847,1.099236641221374,-0.7022900763358778,7087,-4,0,155.72021484375,36.04197133995365,0.0,False,,False,,,,,30
181.71800000000002,2.9026005790001363,-0.958740234375,0.26171875,-0.064208984375,-1.5877862595419847,1.099236641221374,-0.7022900763358778,7087,-4,0,155.72021484375,36.04197133995365,0.0,False,,False,,,,,30
181.723,2.9046023270000205,-0.962646484375,0.259033203125,-0.0634765625,-1.5877862595419847,0.8854961832061068,-0.48854961832061067,7087,3,0,155.72021484375,33.84034813059206,0.0,False,,False,,,,,30
181.723,2.906600631000174,-0.962646484375,0.259033203125,-0.0634765625,-1.5877862595419847,0.8854961832061068,-0.48854961832061067,7087,3,0,155.72021484375,33.84034813059206,0.0,False,,False,,,,,30
181.728,2.908605175000048,-0.965576171875,0.25634765625,-0.062255859375,-1.8015267175572518,0.9770992366412213,-0.24427480916030533,7087,9,2,155.72021484375,31.506953723601885,0.002628,False,,False,,,,,30
181.728,2.91060279300018,-0.965576171875,0.25634765625,-0.062255859375,-1.8015267175572518,0.9770992366412213,-0.24427480916030533,7087,9,2,155.72021484375,31.506953723601885,0.002628,False,,False,,,,,30
181.728,2.9126063930000328,-0.965576171875,0.25634765625,-0.062255859375,-1.8015267175572518,0.9770992366412213,-0.24427480916030533,7087,9,2,155.72021484375,31.506953723601885,0.002628,False,,False,,,,,30
181.733,2.9146096780000335,-0.9658203125,0.255126953125,-0.0615234375,-1.83206106870229,1.0076335877862594,-0.2748091603053435,7087,-3,3,155.72021484375,29.097046133356358,0.003942,False,,False,,,,,30
181.733,2.9166068700001233,-0.9658203125,0.255126953125,-0.0615234375,-1.83206106870229,1.0076335877862594,-0.2748091603053435,7087,-3,3,155.72021484375,29.097046133356358,0.003942,False,,False,,,,,30
181.738,2.9186508770001183,-0.964599609375,0.2548828125,-0.0634765625,-1.648854961832061,1.0381679389312977,-0.24427480916030533,7086,-3,4,155.6982421875,26.642079188504457,0.005256,False,,False,,,,,30
181.738,2.9206100510000397,-0.964599609375,0.2548828125,-0.0634765625,-1.648854961832061,1.0381679389312977,-0.24427480916030533,7086,-3,4,155.6982421875,26.642079188504457,0.005256,False,,False,,,,,30
181.738,2.9226128540001355,-0.964599609375,0.2548828125,-0.0634765625,-1.648854961832061,1.0381679389312977,-0.24427480916030533,7086,-3,4,155.6982421875,26.642079188504457,0.005256,False,,False,,,,,30
181.743,2.924615380000205,-0.96875,0.25927734375,-0.064697265625,-1.8015267175572518,1.282442748091603,-0.24427480916030533,7087,0,-4,155.72021484375,24.18495381237439,-0.005256,False,,False,,,,,30
181.743,2.92661686800011,-0.96875,0.25927734375,-0.064697265625,-1.8015267175572518,1.282442748091603,-0.24427480916030533,7087,0,-4,155.72021484375,24.18495381237439,-0.005256,False,,False,,,,,30
181.748,2.9286194310000155,-0.962158203125,0.25927734375,-0.066162109375,-1.618320610687023,1.3740458015267174,-0.21374045801526717,7088,11,-2,155.7421875,21.809363917185856,-0.002628,False,,False,,,,,30
181.748,2.930618586000037,-0.962158203125,0.25927734375,-0.066162109375,-1.618320610687023,1.3740458015267174,-0.21374045801526717,7088,11,-2,155.7421875,21.809363917185856,-0.002628,False,,False,,,,,30
181.748,2.9326227420001487,-0.962158203125,0.25927734375,-0.066162109375,-1.618320610687023,1.3740458015267174,-0.21374045801526717,7088,11,-2,155.7421875,21.809363917185856,-0.002628,False,,False,,,,,30
181.75300000000001,2.934622619000038,-0.96337890625,0.262939453125,-0.065185546875,-1.618320610687023,1.4351145038167938,-0.33587786259541985,7088,7,0,155.7421875,19.552364143204645,0.0,False,,False,,,,,30
181.75300000000001,2.9366217740000593,-0.96337890625,0.262939453125,-0.065185546875,-1.618320610687023,1.4351145038167938,-0.33587786259541985,7088,7,0,155.7421875,19.552364143204645,0.0,False,,False,,,,,30
181.758,2.938627133000182,-0.966064453125,0.26416015625,-0.068115234375,-1.5267175572519083,1.5267175572519083,-0.3053435114503817,7089,11,-6,155.76416015625,17.411426787566022,-0.007884,False,,False,,,,,30
181.758,2.9406242700001712,-0.966064453125,0.26416015625,-0.068115234375,-1.5267175572519083,1.5267175572519083,-0.3053435114503817,7089,11,-6,155.76416015625,17.411426787566022,-0.007884,False,,False,,,,,30
181.758,2.9426275180001085,-0.966064453125,0.26416015625,-0.068115234375,-1.5267175572519083,1.5267175572519083,-0.3053435114503817,7089,11,-6,155.76416015625,17.411426787566022,-0.007884,False,,False,,,,,30
181.763,2.944629970000051,-0.96484375,0.263916015625,-0.064208984375,-1.3435114503816794,1.5877862595419847,-0.24427480916030533,7087,-2,-8,155.72021484375,15.36683874675653,-0.010512,False,,False,,,,,30
181.763,2.946628773000157,-0.96484375,0.263916015625,-0.064208984375,-1.3435114503816794,1.5877862595419847,-0.24427480916030533,7087,-2,-8,155.72021484375,15.36683874675653,-0.010512,False,,False,,,,,30
181.768,2.9486336870002106,-0.96435546875,0.269287109375,-0.06201171875,-1.099236641221374,1.465648854961832,-0.21374045801526717,7090,6,-1,155.7861328125,13.432531971285252,-0.001314,False,,False,,,,,30
181.768,2.9506315650000943,-0.96435546875,0.269287109375,-0.06201171875,-1.099236641221374,1.465648854961832,-0.21374045801526717,7090,6,-1,155.7861328125,13.432531971285252,-0.001314,False,,False,,,,,30
181.768,2.9526360350000687,-0.96435546875,0.269287109375,-0.06201171875,-1.099236641221374,1.465648854961832,-0.21374045801526717,7090,6,-1,155.7861328125,13.432531971285252,-0.001314,False,,False,,,,,30
181.773,2.9546370980001484,-0.961669921875,0.267333984375,-0.0615234375,-0.9465648854961831,1.5267175572519083,-0.12213740458015267,7089,2,-2,155.76416015625,11.666319197788875,-0.002628,False,,False,,,,,30
181.773,2.9566358090000904,-0.961669921875,0.267333984375,-0.0615234375,-0.9465648854961831,1.5267175572519083,-0.12213740458015267,7089,2,-2,155.76416015625,11.666319197788875,-0.002628,False,,False,,,,,30
181.778,2.95866366700011,-0.9638671875,0.27001953125,-0.060791015625,-0.916030534351145,1.3129770992366412,-0.24427480916030533,7090,1,-1,155.7861328125,10.050502686449974,-0.001314,False,,False,,,,,30
181.778,2.9606627670000307,-0.9638671875,0.27001953125,-0.060791015625,-0.916030534351145,1.3129770992366412,-0.24427480916030533,7090,1,-1,155.7861328125,10.050502686449974,-0.001314,False,,False,,,,,30
181.778,2.962687237000182,-0.9638671875,0.27001953125,-0.060791015625,-0.916030534351145,1.3129770992366412,-0.24427480916030533,7090,1,-1,155.7861328125,10.050502686449974,-0.001314,False,,False,,,,,30
181.78300000000002,2.9646668550001323,-0.9609375,0.26611328125,-0.0615234375,-0.732824427480916,1.3129770992366412,-0.15267175572519084,7091,9,2,155.80810546875,8.58400305736924,0.002628,False,,False,,,,,30
181.78300000000002,2.9666655480000372,-0.9609375,0.26611328125,-0.0615234375,-0.732824427480916,1.3129770992366412,-0.15267175572519084,7091,9,2,155.80810546875,8.58400305736924,0.002628,False,,False,,,,,30
181.788,2.9686700920001385,-0.96240234375,0.26416015625,-0.06103515625,-0.5801526717557252,1.0687022900763359,0.0,7090,-6,-5,155.7861328125,7.263753560730874,-0.0065699999999999995,False,,False,,,,,30
181.788,2.9706695060001493,-0.96240234375,0.26416015625,-0.06103515625,-0.5801526717557252,1.0687022900763359,0.0,7090,-6,-5,155.7861328125,7.263753560730874,-0.0065699999999999995,False,,False,,,,,30
181.788,2.972672106000118,-0.96240234375,0.26416015625,-0.06103515625,-0.5801526717557252,1.0687022900763359,0.0,7090,-6,-5,155.7861328125,7.263753560730874,-0.0065699999999999995,False,,False,,,,,30
181.793,2.9746735210001134,-0.9609375,0.26123046875,-0.061279296875,-0.549618320610687,1.1603053435114503,0.061068702290076333,7090,-3,-8,155.7861328125,6.037321306470644,-0.010512,False,,False,,,,,30
181.793,2.9766728980000607,-0.9609375,0.26123046875,-0.061279296875,-0.549618320610687,1.1603053435114503,0.061068702290076333,7090,-3,-8,155.7861328125,6.037321306470644,-0.010512,False,,False,,,,,30
181.798,2.9786778680002044,-0.963134765625,0.263427734375,-0.062255859375,-0.33587786259541985,0.8854961832061068,0.3053435114503817,7091,0,-9,155.80810546875,4.9231137067941,-0.011826,False,,False,,,,,30
181.798,2.9806751160001568,-0.963134765625,0.263427734375,-0.062255859375,-0.33587786259541985,0.8854961832061068,0.3053435114503817,7091,0,-9,155.80810546875,4.9231137067941,-0.011826,False,,False,,,,,30
181.798,2.982678031000205,-0.963134765625,0.263427734375,-0.062255859375,-0.33587786259541985,0.8854961832061068,0.3053435114503817,7091,0,-9,155.80810546875,4.9231137067941,-0.011826,False,,False,,,,,30
181.803,2.984681482000042,-0.95703125,0.26123046875,-0.065185546875,-0.15267175572519084,0.7938931297709924,0.33587786259541985,7091,4,-4,155.80810546875,3.9508309342135632,-0.005256,False,,False,,,,,30
181.803,2.986681489000148,-0.95703125,0.26123046875,-0.065185546875,-0.15267175572519084,0.7938931297709924,0.33587786259541985,7091,4,-4,155.80810546875,3.9508309342135632,-0.005256,False,,False,,,,,30
181.808,2.9886844960001326,-0.956298828125,0.2626953125,-0.065673828125,0.0,0.8244274809160305,0.42748091603053434,7092,4,-2,155.830078125,3.111450216914439,-0.002628,False,,False,,,,,30
181.808,2.990685337000059,-0.956298828125,0.2626953125,-0.065673828125,0.0,0.8244274809160305,0.42748091603053434,7092,4,-2,155.830078125,3.111450216914439,-0.002628,False,,False,,,,,30
181.808,2.9926899179999964,-0.956298828125,0.2626953125,-0.065673828125,0.0,0.8244274809160305,0.42748091603053434,7092,4,-2,155.830078125,3.111450216914439,-0.002628,False,,False,,,,,30
181.81300000000002,2.994687999000007,-0.955810546875,0.259521484375,-0.063232421875,0.030534351145038167,0.6106870229007634,0.42748091603053434,7090,1,-3,155.7861328125,2.3636613550327956,-0.003942,False,,False,,,,,30
181.81300000000002,2.996687692000023,-0.955810546875,0.259521484375,-0.063232421875,0.030534351145038167,0.6106870229007634,0.42748091603053434,7090,1,-3,155.7861328125,2.3636613550327956,-0.003942,False,,False,,,,,30
181.818,2.9986920690000716,-0.955078125,0.260498046875,-0.064208984375,0.366412213740458,0.5801526717557252,0.549618320610687,7090,2,0,155.7861328125,1.6556377485191804,0.0,False,,False,,,,,30
181.818,3.000692613000183,-0.955078125,0.260498046875,-0.064208984375,0.366412213740458,0.5801526717557252,0.549618320610687,7090,2,0,155.7861328125,1.6556377485191804,0.0,False,,False,,,,,30
181.818,3.0026940830000513,-0.955078125,0.260498046875,-0.064208984375,0.366412213740458,0.5801526717557252,0.549618320610687,7090,2,0,155.7861328125,1.6556377485191804,0.0,False,,False,,,,,30
181.823,3.0049288850000266,-0.95458984375,0.262451171875,-0.06201171875,0.5801526717557252,0.24427480916030533,0.6412213740458015,7090,-2,1,155.7861328125,1.0070774207832969,0.001314,False,,False,,,,,30
181.823,3.006929318000175,-0.95458984375,0.262451171875,-0.06201171875,0.5801526717557252,0.24427480916030533,0.6412213740458015,7090,-2,1,155.7861328125,1.0070774207832969,0.001314,False,,False,,,,,30
181.828,3.0089328070000647,-0.95556640625,0.259765625,-0.0625,0.6717557251908397,0.061068702290076333,0.732824427480916,7091,-2,-5,155.80810546875,0.4654409525493268,-0.0065699999999999995,False,,False,,,,,30
181.828,3.010933259000012,-0.95556640625,0.259765625,-0.0625,0.6717557251908397,0.061068702290076333,0.732824427480916,7091,-2,-5,155.80810546875,0.4654409525493268,-0.0065699999999999995,False,,False,,,,,30
181.828,3.0129325430000335,-0.95556640625,0.259765625,-0.0625,0.6717557251908397,0.061068702290076333,0.732824427480916,7091,-2,-5,155.80810546875,0.4654409525493268,-0.0065699999999999995,False,,False,,,,,30
181.833,3.0149370880001243,-0.953369140625,0.261474609375,-0.060791015625,0.8549618320610687,0.183206106870229,0.7938931297709924,7091,-5,-6,155.80810546875,0.03708130930600817,-0.007884,False,,False,,,,,30
181.833,3.016934613000103,-0.953369140625,0.261474609375,-0.060791015625,0.8549618320610687,0.183206106870229,0.7938931297709924,7091,-5,-6,155.80810546875,0.03708130930600817,-0.007884,False,,False,,,,,30
181.838,3.0189403430001676,-0.951171875,0.2568359375,-0.063720703125,1.0381679389312977,-0.12213740458015267,0.7938931297709924,7091,4,-3,155.80810546875,-0.30615511833081,-0.003942,False,,False,,,,,30
181.838,3.02094044200021,-0.951171875,0.2568359375,-0.063720703125,1.0381679389312977,-0.12213740458015267,0.7938931297709924,7091,4,-3,155.80810546875,-0.30615511833081,-0.003942,False,,False,,,,,30
181.838,3.022940653000205,-0.951171875,0.2568359375,-0.063720703125,1.0381679389312977,-0.12213740458015267,0.7938931297709924,7091,4,-3,155.80810546875,-0.30615511833081,-0.003942,False,,False,,,,,30
181.84300000000002,3.024944049000169,-0.955322265625,0.256103515625,-0.062255859375,1.1908396946564885,-0.366412213740458,0.916030534351145,7090,-4,1,155.7861328125,-0.6049867648548071,0.001314,False,,False,,,,,30
181.84300000000002,3.026945093000222,-0.955322265625,0.256103515625,-0.062255859375,1.1908396946564885,-0.366412213740458,0.916030534351145,7090,-4,1,155.7861328125,-0.6049867648548071,0.001314,False,,False,,,,,30
181.848,3.0289479340001435,-0.95361328125,0.2578125,-0.05859375,1.2213740458015268,-0.366412213740458,1.0381679389312977,7091,-4,0,155.80810546875,-0.8623144512018532,0.0,False,,False,,,,,30
181.848,3.030947737000133,-0.95361328125,0.2578125,-0.05859375,1.2213740458015268,-0.366412213740458,1.0381679389312977,7091,-4,0,155.80810546875,-0.8623144512018532,0.0,False,,False,,,,,30
181.848,3.0329499290000967,-0.95361328125,0.2578125,-0.05859375,1.2213740458015268,-0.366412213740458,1.0381679389312977,7091,-4,0,155.80810546875,-0.8623144512018532,0.0,False,,False,,,,,30
181.853,3.0349520290001237,-0.95458984375,0.257568359375,-0.06298828125,1.4351145038167938,-0.549618320610687,1.0076335877862594,7092,0,-2,155.830078125,-1.0334211701499492,-0.002628,False,,False,,,,,30
181.853,3.036952073000066,-0.95458984375,0.257568359375,-0.06298828125,1.4351145038167938,-0.549618320610687,1.0076335877862594,7092,0,-2,155.830078125,-1.0334211701499492,-0.002628,False,,False,,,,,30
181.858,3.0389560250000613,-0.95703125,0.25439453125,-0.058349609375,1.5877862595419847,-0.48854961832061067,0.9465648854961831,7091,0,-5,155.80810546875,-1.129866501073813,-0.0065699999999999995,False,,False,,,,,30
181.858,3.040980791000038,-0.95703125,0.25439453125,-0.058349609375,1.5877862595419847,-0.48854961832061067,0.9465648854961831,7091,0,-5,155.80810546875,-1.129866501073813,-0.0065699999999999995,False,,False,,,,,30
181.858,3.0429590580001786,-0.95703125,0.25439453125,-0.058349609375,1.5877862595419847,-0.48854961832061067,0.9465648854961831,7091,0,-5,155.80810546875,-1.129866501073813,-0.0065699999999999995,False,,False,,,,,30
181.863,3.044958917000031,-0.9560546875,0.252197265625,-0.058837890625,1.5877862595419847,-0.42748091603053434,1.0687022900763359,7092,4,1,155.830078125,-1.1942406959874823,0.001314,False,,False,,,,,30
181.863,3.0469599050002216,-0.9560546875,0.252197265625,-0.058837890625,1.5877862595419847,-0.42748091603053434,1.0687022900763359,7092,4,1,155.830078125,-1.1942406959874823,0.001314,False,,False,,,,,30
181.868,3.04896537500008,-0.959716796875,0.24853515625,-0.054443359375,1.5267175572519083,-0.5801526717557252,1.129770992366412,7090,-2,-1,155.7861328125,-1.2467485455663672,-0.001314,False,,False,,,,,30
181.868,3.050963086000138,-0.959716796875,0.24853515625,-0.054443359375,1.5267175572519083,-0.5801526717557252,1.129770992366412,7090,-2,-1,155.7861328125,-1.2467485455663672,-0.001314,False,,False,,,,,30
181.868,3.0529695380000703,-0.959716796875,0.24853515625,-0.054443359375,1.5267175572519083,-0.5801526717557252,1.129770992366412,7090,-2,-1,155.7861328125,-1.2467485455663672,-0.001314,False,,False,,,,,30
181.873,3.0549688780001816,-0.958984375,0.248291015625,-0.057373046875,1.8015267175572518,-0.4580152671755725,1.129770992366412,7090,-4,1,155.7861328125,-1.3203926269205006,0.001314,False,,False,,,,,30
181.873,3.056968015000166,-0.958984375,0.248291015625,-0.057373046875,1.8015267175572518,-0.4580152671755725,1.129770992366412,7090,-4,1,155.7861328125,-1.3203926269205006,0.001314,False,,False,,,,,30
181.87800000000001,3.0589718180001455,-0.962158203125,0.252685546875,-0.0546875,1.5267175572519083,-0.4580152671755725,1.0687022900763359,7092,5,-2,155.830078125,-1.3629179342765037,-0.002628,False,,False,,,,,30
181.87800000000001,3.0609698250000292,-0.962158203125,0.252685546875,-0.0546875,1.5267175572519083,-0.4580152671755725,1.0687022900763359,7092,5,-2,155.830078125,-1.3629179342765037,-0.002628,False,,False,,,,,30
181.87800000000001,3.0629729250001674,-0.962158203125,0.252685546875,-0.0546875,1.5267175572519083,-0.4580152671755725,1.0687022900763359,7092,5,-2,155.830078125,-1.3629179342765037,-0.002628,False,,False,,,,,30
181.883,3.0649746730000516,-0.9638671875,0.250244140625,-0.055908203125,1.5572519083969465,-0.15267175572519084,1.129770992366412,7091,0,-4,155.80810546875,-1.3310283447688513,-0.005256,False,,False,,,,,30
181.883,3.0669745690001946,-0.9638671875,0.250244140625,-0.055908203125,1.5572519083969465,-0.15267175572519084,1.129770992366412,7091,0,-4,155.80810546875,-1.3310283447688513,-0.005256,False,,False,,,,,30
181.888,3.068979595000201,-0.964599609375,0.254150390625,-0.056396484375,1.7099236641221374,-0.48854961832061067,1.099236641221374,7091,-2,-3,155.80810546875,-1.2850487225587577,-0.003942,False,,False,,,,,30
181.888,3.0709784720002062,-0.964599609375,0.254150390625,-0.056396484375,1.7099236641221374,-0.48854961832061067,1.099236641221374,7091,-2,-3,155.80810546875,-1.2850487225587577,-0.003942,False,,False,,,,,30
181.888,3.072977627,-0.964599609375,0.254150390625,-0.056396484375,1.7099236641221374,-0.48854961832061067,1.099236641221374,7091,-2,-3,155.80810546875,-1.2850487225587577,-0.003942,False,,False,,,,,30
181.893,3.0749819310001385,-0.96630859375,0.251953125,-0.056884765625,1.5877862595419847,-0.3053435114503817,1.1908396946564885,7091,4,2,155.80810546875,-1.243854870290604,0.002628,False,,False,,,,,30
181.893,3.076982123000107,-0.96630859375,0.251953125,-0.056884765625,1.5877862595419847,-0.3053435114503817,1.1908396946564885,7091,4,2,155.80810546875,-1.243854870290604,0.002628,False,,False,,,,,30
181.898,3.078985241000055,-0.96484375,0.250244140625,-0.056396484375,1.7709923664122136,-0.21374045801526717,1.1908396946564885,7091,0,-2,155.80810546875,-1.1913487482632128,-0.002628,False,,False,,,,,30
181.898,3.0809857850001663,-0.96484375,0.250244140625,-0.056396484375,1.7709923664122136,-0.21374045801526717,1.1908396946564885,7091,0,-2,155.80810546875,-1.1913487482632128,-0.002628,False,,False,,,,,30
181.898,3.082987552000077,-0.96484375,0.250244140625,-0.056396484375,1.7709923664122136,-0.21374045801526717,1.1908396946564885,7091,0,-2,155.80810546875,-1.1913487482632128,-0.002628,False,,False,,,,,30
181.903,3.0850222630001554,-0.96826171875,0.249267578125,-0.05615234375,1.83206106870229,-0.15267175572519084,1.099236641221374,7091,0,0,155.80810546875,-1.1301328433655984,0.0,False,,False,,,,,30
181.903,3.086989825000046,-0.96826171875,0.249267578125,-0.05615234375,1.83206106870229,-0.15267175572519084,1.099236641221374,7091,0,0,155.80810546875,-1.1301328433655984,0.0,False,,False,,,,,30
181.90800000000002,3.0892349240000385,-0.969970703125,0.25244140625,-0.056640625,1.9541984732824427,-0.0916030534351145,1.0076335877862594,7091,0,-2,155.80810546875,-1.0625120861073585,-0.002628,False,,False,,,,,30
181.90800000000002,3.0912344310002027,-0.969970703125,0.25244140625,-0.056640625,1.9541984732824427,-0.0916030534351145,1.0076335877862594,7091,0,-2,155.80810546875,-1.0625120861073585,-0.002628,False,,False,,,,,30
181.90800000000002,3.093235419000166,-0.969970703125,0.25244140625,-0.056640625,1.9541984732824427,-0.0916030534351145,1.0076335877862594,7091,0,-2,155.80810546875,-1.0625120861073585,-0.002628,False,,False,,,,,30
181.913,3.0953147040002023,-0.966064453125,0.252197265625,-0.0576171875,1.83206106870229,-0.12213740458015267,1.129770992366412,7091,0,-3,155.80810546875,-0.9905089073601493,-0.003942,False,,False,,,,,30
181.913,3.097314822000044,-0.966064453125,0.252197265625,-0.0576171875,1.83206106870229,-0.12213740458015267,1.129770992366412,7091,0,-3,155.80810546875,-0.9905089073601493,-0.003942,False,,False,,,,,30
181.918,3.0993175700000393,-0.969482421875,0.250244140625,-0.056884765625,2.045801526717557,0.15267175572519084,1.0381679389312977,7091,-4,0,155.80810546875,-0.9158799360802443,0.0,False,,False,,,,,30
181.918,3.1013186140000926,-0.969482421875,0.250244140625,-0.056884765625,2.045801526717557,0.15267175572519084,1.0381679389312977,7091,-4,0,155.80810546875,-0.9158799360802443,0.0,False,,False,,,,,30
181.918,3.1033203250001407,-0.969482421875,0.250244140625,-0.056884765625,2.045801526717557,0.15267175572519084,1.0381679389312977,7091,-4,0,155.80810546875,-0.9158799360802443,0.0,False,,False,,,,,30
181.923,3.105320091000067,-0.966064453125,0.253173828125,-0.053955078125,2.198473282442748,0.183206106870229,0.9770992366412213,7091,0,0,155.80810546875,-0.8401338289350118,0.0,False,,False,,,,,30
181.923,3.107323339000004,-0.966064453125,0.253173828125,-0.053955078125,2.198473282442748,0.183206106870229,0.9770992366412213,7091,0,0,155.80810546875,-0.8401338289350118,0.0,False,,False,,,,,30
181.928,3.1093248829999993,-0.96484375,0.252685546875,-0.056396484375,2.16793893129771,0.0916030534351145,0.8854961832061068,7091,5,-2,155.80810546875,-0.7645497892456697,-0.002628,False,,False,,,,,30
181.928,3.1113254830002006,-0.96484375,0.252685546875,-0.056396484375,2.16793893129771,0.0916030534351145,0.8854961832061068,7091,5,-2,155.80810546875,-0.7645497892456697,-0.002628,False,,False,,,,,30
181.928,3.113324786000021,-0.96484375,0.252685546875,-0.056396484375,2.16793893129771,0.0916030534351145,0.8854961832061068,7091,5,-2,155.80810546875,-0.7645497892456697,-0.002628,False,,False,,,,,30
181.933,3.1153295900001012,-0.967529296875,0.251220703125,-0.05517578125,2.259541984732824,0.3053435114503817,0.732824427480916,7090,-5,-7,155.7861328125,-0.7061119873290468,-0.009198,False,,False,,,,,30
181.933,3.1173280230000273,-0.967529296875,0.251220703125,-0.05517578125,2.259541984732824,0.3053435114503817,0.732824427480916,7090,-5,-7,155.7861328125,-0.7061119873290468,-0.009198,False,,False,,,,,30
181.93800000000002,3.119331660000171,-0.96533203125,0.255126953125,-0.055908203125,2.4122137404580153,0.21374045801526717,0.6106870229007634,7091,1,-8,155.80810546875,-0.6628752734918057,-0.010512,False,,False,,,,,30
181.93800000000002,3.1213311670001076,-0.96533203125,0.255126953125,-0.055908203125,2.4122137404580153,0.21374045801526717,0.6106870229007634,7091,1,-8,155.80810546875,-0.6628752734918057,-0.010512,False,,False,,,,,30
181.93800000000002,3.1233379520001563,-0.96533203125,0.255126953125,-0.055908203125,2.4122137404580153,0.21374045801526717,0.6106870229007634,7091,1,-8,155.80810546875,-0.6628752734918057,-0.010512,False,,False,,,,,30
181.943,3.1253364030001194,-0.967041015625,0.258544921875,-0.0546875,2.3206106870229006,0.183206106870229,0.7022900763358778,7092,4,0,155.830078125,-0.5852442123181755,0.0,False,,False,,,,,30
181.943,3.12733696600003,-0.967041015625,0.258544921875,-0.0546875,2.3206106870229006,0.183206106870229,0.7022900763358778,7092,4,0,155.830078125,-0.5852442123181755,0.0,False,,False,,,,,30
181.948,3.1293417510000836,-0.968017578125,0.259765625,-0.05224609375,2.717557251908397,0.3053435114503817,0.42748091603053434,7091,0,-11,155.80810546875,-0.47994345456445076,-0.014454,False,,False,,,,,30
181.948,3.131341295000084,-0.968017578125,0.259765625,-0.05224609375,2.717557251908397,0.3053435114503817,0.42748091603053434,7091,0,-11,155.80810546875,-0.47994345456445076,-0.014454,False,,False,,,,,30
181.948,3.133342710000079,-0.968017578125,0.259765625,-0.05224609375,2.717557251908397,0.3053435114503817,0.42748091603053434,7091,0,-11,155.80810546875,-0.47994345456445076,-0.014454,False,,False,,,,,30
181.953,3.1353458830001273,-0.97119140625,0.258544921875,-0.054443359375,2.8091603053435112,0.2748091603053435,0.42748091603053434,7090,-1,-10,155.7861328125,-0.4166659681490803,-0.013139999999999999,False,,False,,,,,30
181.953,3.1373445200001697,-0.97119140625,0.258544921875,-0.054443359375,2.8091603053435112,0.2748091603053435,0.42748091603053434,7090,-1,-10,155.7861328125,-0.4166659681490803,-0.013139999999999999,False,,False,,,,,30
181.958,3.1393478980000964,-0.96826171875,0.25927734375,-0.055908203125,2.8702290076335877,0.183206106870229,0.4580152671755725,7090,-5,-3,155.7861328125,-0.40540186963029556,-0.003942,False,,False,,,,,30
181.958,3.1413474600001337,-0.96826171875,0.25927734375,-0.055908203125,2.8702290076335877,0.183206106870229,0.4580152671755725,7090,-5,-3,155.7861328125,-0.40540186963029556,-0.003942,False,,False,,,,,30
181.958,3.1433506710000074,-0.96826171875,0.25927734375,-0.055908203125,2.8702290076335877,0.183206106870229,0.4580152671755725,7090,-5,-3,155.7861328125,-0.40540186963029556,-0.003942,False,,False,,,,,30
181.963,3.145352623000008,-0.96728515625,0.262451171875,-0.052490234375,2.9923664122137406,0.030534351145038167,0.183206106870229,7091,-3,-6,155.80810546875,-0.3900988272029986,-0.007884,False,,False,,,,,30
181.963,3.1473518330001298,-0.96728515625,0.262451171875,-0.052490234375,2.9923664122137406,0.030534351145038167,0.183206106870229,7091,-3,-6,155.80810546875,-0.3900988272029986,-0.007884,False,,False,,,,,30
181.96800000000002,3.149355526000136,-0.964599609375,0.25830078125,-0.054931640625,3.2061068702290076,-0.12213740458015267,0.12213740458015267,7091,-2,-10,155.80810546875,-0.33980496083873585,-0.013139999999999999,False,,False,,,,,30
181.96800000000002,3.1513559030001943,-0.964599609375,0.25830078125,-0.054931640625,3.2061068702290076,-0.12213740458015267,0.12213740458015267,7091,-2,-10,155.80810546875,-0.33980496083873585,-0.013139999999999999,False,,False,,,,,30
181.96800000000002,3.153355966000163,-0.964599609375,0.25830078125,-0.054931640625,3.2061068702290076,-0.12213740458015267,0.12213740458015267,7091,-2,-10,155.80810546875,-0.33980496083873585,-0.013139999999999999,False,,False,,,,,30
181.973,3.1553596580001795,-0.96240234375,0.2568359375,-0.054931640625,3.4198473282442747,-0.21374045801526717,0.183206106870229,7091,0,-8,155.80810546875,-0.2768616047715341,-0.010512,False,,False,,,,,30
181.973,3.157358721000037,-0.96240234375,0.2568359375,-0.054931640625,3.4198473282442747,-0.21374045801526717,0.183206106870229,7091,0,-8,155.80810546875,-0.2768616047715341,-0.010512,False,,False,,,,,30
181.978,3.1593628950001857,-0.962646484375,0.257080078125,-0.053955078125,3.5114503816793894,-0.3053435114503817,-0.061068702290076333,7090,-1,-9,155.7861328125,-0.2360713563737359,-0.011826,False,,False,,,,,30
181.978,3.1613619570000537,-0.962646484375,0.257080078125,-0.053955078125,3.5114503816793894,-0.3053435114503817,-0.061068702290076333,7090,-1,-9,155.7861328125,-0.2360713563737359,-0.011826,False,,False,,,,,30
181.978,3.163365057000192,-0.962646484375,0.257080078125,-0.053955078125,3.5114503816793894,-0.3053435114503817,-0.061068702290076333,7090,-1,-9,155.7861328125,-0.2360713563737359,-0.011826,False,,False,,,,,30
181.983,3.1653679350001767,-0.962646484375,0.259765625,-0.054443359375,3.480916030534351,-0.12213740458015267,-0.030534351145038167,7092,0,3,155.830078125,-0.19850260779459233,0.003942,False,,False,,,,,30
181.983,3.167367979000119,-0.962646484375,0.259765625,-0.054443359375,3.480916030534351,-0.12213740458015267,-0.030534351145038167,7092,0,3,155.830078125,-0.19850260779459233,0.003942,False,,False,,,,,30
181.988,3.169369727000003,-0.96337890625,0.257080078125,-0.053466796875,3.7557251908396947,-0.2748091603053435,0.0,7091,0,1,155.80810546875,-0.13234390273239185,0.001314,False,,False,,,,,30
181.988,3.171367456000098,-0.96337890625,0.257080078125,-0.053466796875,3.7557251908396947,-0.2748091603053435,0.0,7091,0,1,155.80810546875,-0.13234390273239185,0.001314,False,,False,,,,,30
181.988,3.1733716110002206,-0.96337890625,0.257080078125,-0.053466796875,3.7557251908396947,-0.2748091603053435,0.0,7091,0,1,155.80810546875,-0.13234390273239185,0.001314,False,,False,,,,,30
181.993,3.175372007000078,-0.95849609375,0.259033203125,-0.05517578125,4.030534351145038,-0.15267175572519084,-0.030534351145038167,7091,5,0,155.80810546875,-0.07503981891890099,0.0,False,,False,,,,,30
181.993,3.1773740880000787,-0.95849609375,0.259033203125,-0.05517578125,4.030534351145038,-0.15267175572519084,-0.030534351145038167,7091,5,0,155.80810546875,-0.07503981891890099,0.0,False,,False,,,,,30
181.998,3.179376707000074,-0.959228515625,0.2587890625,-0.05517578125,3.847328244274809,-0.33587786259541985,-0.030534351145038167,7091,2,-7,155.80810546875,-0.04189440270287623,-0.009198,False,,False,,,,,30
181.998,3.1813766210000267,-0.959228515625,0.2587890625,-0.05517578125,3.847328244274809,-0.33587786259541985,-0.030534351145038167,7091,2,-7,155.80810546875,-0.04189440270287623,-0.009198,False,,False,,,,,30
182.00300000000001,3.183448795000004,-0.960693359375,0.2568359375,-0.055419921875,4.152671755725191,-0.2748091603053435,-0.12213740458015267,7089,-4,-4,155.76416015625,-0.04536994087783506,-0.005256,False,,False,,,,,30
182.00300000000001,3.1854468760000145,-0.960693359375,0.2568359375,-0.055419921875,4.152671755725191,-0.2748091603053435,-0.12213740458015267,7089,-4,-4,155.76416015625,-0.04536994087783506,-0.005256,False,,False,,,,,30
182.00300000000001,3.187452142000211,-0.960693359375,0.2568359375,-0.055419921875,4.152671755725191,-0.2748091603053435,-0.12213740458015267,7089,-4,-4,155.76416015625,-0.04536994087783506,-0.005256,False,,False,,,,,30
182.008,3.1894534830000794,-0.96435546875,0.26171875,-0.0537109375,4.305343511450381,-0.0916030534351145,0.21374045801526717,7090,3,-7,155.7861328125,-0.09536911354569312,-0.009198,False,,False,,,,,30
182.008,3.191451453000127,-0.96435546875,0.26171875,-0.0537109375,4.305343511450381,-0.0916030534351145,0.21374045801526717,7090,3,-7,155.7861328125,-0.09536911354569312,-0.009198,False,,False,,,,,30
182.008,3.19345662600017,-0.96435546875,0.26171875,-0.0537109375,4.305343511450381,-0.0916030534351145,0.21374045801526717,7090,3,-7,155.7861328125,-0.09536911354569312,-0.009198,False,,False,,,,,30
182.013,3.1954543740000645,-0.96435546875,0.26513671875,-0.0537109375,4.396946564885496,-0.24427480916030533,0.0,7090,-2,6,155.7861328125,-0.13584591725853032,0.007884,False,,False,,,,,30
182.013,3.1974588630000653,-0.96435546875,0.26513671875,-0.0537109375,4.396946564885496,-0.24427480916030533,0.0,7090,-2,6,155.7861328125,-0.13584591725853032,0.007884,False,,False,,,,,30
182.018,3.199461055000029,-0.9619140625,0.26513671875,-0.0537109375,4.33587786259542,-0.15267175572519084,-0.0916030534351145,7090,1,7,155.7861328125,-0.15184879944383856,0.009198,False,,False,,,,,30
182.018,3.201515766000057,-0.9619140625,0.26513671875,-0.0537109375,4.33587786259542,-0.15267175572519084,-0.0916030534351145,7090,1,7,155.7861328125,-0.15184879944383856,0.009198,False,,False,,,,,30
182.023,3.2035160320001523,-0.966064453125,0.265380859375,-0.052734375,4.519083969465648,-0.12213740458015267,-0.061068702290076333,7088,-3,1,155.7421875,-0.19487751200638254,0.001314,False,,False,,,,,30
182.023,3.205515928000068,-0.966064453125,0.265380859375,-0.052734375,4.519083969465648,-0.12213740458015267,-0.061068702290076333,7088,-3,1,155.7421875,-0.19487751200638254,0.001314,False,,False,,,,,30
182.023,3.2075199540001904,-0.966064453125,0.265380859375,-0.052734375,4.519083969465648,-0.12213740458015267,-0.061068702290076333,7088,-3,1,155.7421875,-0.19487751200638254,0.001314,False,,False,,,,,30
182.028,3.2095243310000114,-0.9677734375,0.2685546875,-0.05419921875,4.580152671755725,0.061068702290076333,0.0,7087,-3,3,155.72021484375,-0.30765518648385737,0.003942,False,,False,,,,,30
182.028,3.211520968000059,-0.9677734375,0.2685546875,-0.05419921875,4.580152671755725,0.061068702290076333,0.0,7087,-3,3,155.72021484375,-0.30765518648385737,0.003942,False,,False,,,,,30
182.03300000000002,3.213525068000081,-0.968017578125,0.270263671875,-0.05322265625,4.763358778625954,-0.030534351145038167,0.030534351145038167,7087,0,-2,155.72021484375,-0.46127604019994484,-0.002628,False,,False,,,,,30
182.03300000000002,3.215523408000081,-0.968017578125,0.270263671875,-0.05322265625,4.763358778625954,-0.030534351145038167,0.030534351145038167,7087,0,-2,155.72021484375,-0.46127604019994484,-0.002628,False,,False,,,,,30
182.03300000000002,3.217528563000087,-0.968017578125,0.270263671875,-0.05322265625,4.763358778625954,-0.030534351145038167,0.030534351145038167,7087,0,-2,155.72021484375,-0.46127604019994484,-0.002628,False,,False,,,,,30
182.038,3.219529348000151,-0.964111328125,0.273681640625,-0.0498046875,4.824427480916031,0.0,-0.0916030534351145,7086,-5,3,155.6982421875,-0.6150334057388838,0.003942,False,,False,,,,,30
182.038,3.221528152000019,-0.964111328125,0.273681640625,-0.0498046875,4.824427480916031,0.0,-0.0916030534351145,7086,-5,3,155.6982421875,-0.6150334057388838,0.003942,False,,False,,,,,30
182.043,3.2235603990000072,-0.96875,0.27294921875,-0.051513671875,4.977099236641221,0.15267175572519084,0.061068702290076333,7086,-1,0,155.6982421875,-0.7666776156368673,0.0,False,,False,,,,,30
182.043,3.225557944000002,-0.96875,0.27294921875,-0.051513671875,4.977099236641221,0.15267175572519084,0.061068702290076333,7086,-1,0,155.6982421875,-0.7666776156368673,0.0,False,,False,,,,,30
182.043,3.227562062000061,-0.96875,0.27294921875,-0.051513671875,4.977099236641221,0.15267175572519084,0.061068702290076333,7086,-1,0,155.6982421875,-0.7666776156368673,0.0,False,,False,,,,,30
182.048,3.2295657360000405,-0.969970703125,0.27392578125,-0.049560546875,5.099236641221374,0.24427480916030533,0.061068702290076333,7084,-7,1,155.654296875,-0.9302714948735766,0.001314,False,,False,,,,,30
182.048,3.23156178000022,-0.969970703125,0.27392578125,-0.049560546875,5.099236641221374,0.24427480916030533,0.061068702290076333,7084,-7,1,155.654296875,-0.9302714948735766,0.001314,False,,False,,,,,30
182.053,3.233566842000073,-0.971435546875,0.2802734375,-0.050537109375,5.343511450381679,0.183206106870229,0.12213740458015267,7084,-7,-3,155.654296875,-1.1174150709006114,-0.003942,False,,False,,,,,30
182.053,3.2355642380000518,-0.971435546875,0.2802734375,-0.050537109375,5.343511450381679,0.183206106870229,0.12213740458015267,7084,-7,-3,155.654296875,-1.1174150709006114,-0.003942,False,,False,,,,,30
182.053,3.2375694860002113,-0.971435546875,0.2802734375,-0.050537109375,5.343511450381679,0.183206106870229,0.12213740458015267,7084,-7,-3,155.654296875,-1.1174150709006114,-0.003942,False,,False,,,,,30
182.058,3.2395706230001906,-0.97021484375,0.281005859375,-0.04833984375,5.49618320610687,0.061068702290076333,0.061068702290076333,7082,-9,-3,155.6103515625,-1.3215629232534105,-0.003942,False,,False,,,,,30
182.058,3.2416045190000204,-0.97021484375,0.281005859375,-0.04833984375,5.49618320610687,0.061068702290076333,0.061068702290076333,7082,-9,-3,155.6103515625,-1.3215629232534105,-0.003942,False,,False,,,,,30
182.06300000000002,3.2435739520001334,-0.9658203125,0.287841796875,-0.047607421875,5.129770992366412,0.2748091603053435,0.549618320610687,7081,-12,7,155.58837890625,-1.5529046023211381,0.009198,False,,False,,,,,30
182.06300000000002,3.245572626000012,-0.9658203125,0.287841796875,-0.047607421875,5.129770992366412,0.2748091603053435,0.549618320610687,7081,-12,7,155.58837890625,-1.5529046023211381,0.009198,False,,False,,,,,30
182.06300000000002,3.247573207000187,-0.9658203125,0.287841796875,-0.047607421875,5.129770992366412,0.2748091603053435,0.549618320610687,7081,-12,7,155.58837890625,-1.5529046023211381,0.009198,False,,False,,,,,30
182.068,3.249575973000219,-0.95361328125,0.295654296875,-0.045166015625,4.152671755725191,0.48854961832061067,1.4351145038167938,7083,0,0,155.63232421875,-1.7559142928263534,0.0,False,,False,,,,,30
182.068,3.251575629000172,-0.95361328125,0.295654296875,-0.045166015625,4.152671755725191,0.48854961832061067,1.4351145038167938,7083,0,0,155.63232421875,-1.7559142928263534,0.0,False,,False,,,,,30
182.073,3.2536254690000987,-0.953857421875,0.301025390625,-0.051025390625,4.916030534351145,0.5190839694656488,1.465648854961832,7082,-2,-9,155.6103515625,-1.868601646210049,-0.011826,False,,False,,,,,30
182.073,3.255622809000215,-0.953857421875,0.301025390625,-0.051025390625,4.916030534351145,0.5190839694656488,1.465648854961832,7082,-2,-9,155.6103515625,-1.868601646210049,-0.011826,False,,False,,,,,30
182.073,3.257626353000205,-0.953857421875,0.301025390625,-0.051025390625,4.916030534351145,0.5190839694656488,1.465648854961832,7082,-2,-9,155.6103515625,-1.868601646210049,-0.011826,False,,False,,,,,30
182.078,3.2596290830001635,-0.9619140625,0.28662109375,-0.048828125,6.778625954198473,0.3053435114503817,0.549618320610687,7081,0,2,155.58837890625,-1.9517871032230212,0.002628,False,,False,,,,,30
182.078,3.2616272010000102,-0.9619140625,0.28662109375,-0.048828125,6.778625954198473,0.3053435114503817,0.549618320610687,7081,0,2,155.58837890625,-1.9517871032230212,0.002628,False,,False,,,,,30
182.083,3.2636313380000956,-0.95947265625,0.295166015625,-0.050048828125,6.99236641221374,0.42748091603053434,1.0687022900763359,7082,5,-3,155.6103515625,-2.0249846215841836,-0.003942,False,,False,,,,,30
182.083,3.2656296780000957,-0.95947265625,0.295166015625,-0.050048828125,6.99236641221374,0.42748091603053434,1.0687022900763359,7082,5,-3,155.6103515625,-2.0249846215841836,-0.003942,False,,False,,,,,30
182.083,3.2676316670001597,-0.95947265625,0.295166015625,-0.050048828125,6.99236641221374,0.42748091603053434,1.0687022900763359,7082,5,-3,155.6103515625,-2.0249846215841836,-0.003942,False,,False,,,,,30
182.088,3.269636711000203,-0.95703125,0.288330078125,-0.0458984375,4.885496183206107,0.7022900763358778,1.7709923664122136,7081,0,-3,155.58837890625,-2.0569288433855997,-0.003942,False,,False,,,,,30
182.088,3.271634459000097,-0.95703125,0.288330078125,-0.0458984375,4.885496183206107,0.7022900763358778,1.7709923664122136,7081,0,-3,155.58837890625,-2.0569288433855997,-0.003942,False,,False,,,,,30
182.09300000000002,3.273638577000156,-0.9482421875,0.294921875,-0.048583984375,5.709923664122138,0.7938931297709924,1.4351145038167938,7080,-3,-1,155.56640625,-2.085704980252686,-0.001314,False,,False,,,,,30
182.09300000000002,3.2756376030001775,-0.9482421875,0.294921875,-0.048583984375,5.709923664122138,0.7938931297709924,1.4351145038167938,7080,-3,-1,155.56640625,-2.085704980252686,-0.001314,False,,False,,,,,30
182.09300000000002,3.2776418690000355,-0.9482421875,0.294921875,-0.048583984375,5.709923664122138,0.7938931297709924,1.4351145038167938,7080,-3,-1,155.56640625,-2.085704980252686,-0.001314,False,,False,,,,,30
182.098,3.279642691000163,-0.946533203125,0.300537109375,-0.04833984375,6.748091603053435,0.2748091603053435,1.5267175572519083,7080,3,-1,155.56640625,-2.1273275751261056,-0.001314,False,,False,,,,,30
182.098,3.281643013000121,-0.946533203125,0.300537109375,-0.04833984375,6.748091603053435,0.2748091603053435,1.5267175572519083,7080,3,-1,155.56640625,-2.1273275751261056,-0.001314,False,,False,,,,,30
182.103,3.283644613000206,-0.947021484375,0.30224609375,-0.04443359375,6.534351145038167,0.21374045801526717,2.1068702290076335,7079,0,-7,155.54443359375,-2.1631864212014085,-0.009198,False,,False,,,,,30
182.103,3.2856471940001484,-0.947021484375,0.30224609375,-0.04443359375,6.534351145038167,0.21374045801526717,2.1068702290076335,7079,0,-7,155.54443359375,-2.1631864212014085,-0.009198,False,,False,,,,,30
182.103,3.2876481450000483,-0.947021484375,0.30224609375,-0.04443359375,6.534351145038167,0.21374045801526717,2.1068702290076335,7079,0,-7,155.54443359375,-2.1631864212014085,-0.009198,False,,False,,,,,30
182.108,3.289649134000001,-0.952880859375,0.294677734375,-0.044677734375,5.49618320610687,0.6106870229007634,2.717557251908397,7081,6,-5,155.58837890625,-2.1618693000708267,-0.0065699999999999995,False,,False,,,,,30
182.108,3.2916485300002023,-0.952880859375,0.294677734375,-0.044677734375,5.49618320610687,0.6106870229007634,2.717557251908397,7081,6,-5,155.58837890625,-2.1618693000708267,-0.0065699999999999995,False,,False,,,,,30
182.113,3.293652519000034,-0.95556640625,0.274658203125,-0.05322265625,9.31297709923664,-0.061068702290076333,0.8244274809160305,7078,0,-7,155.5224609375,-2.1294482221007893,-0.009198,False,,False,,,,,30
182.113,3.2956506180000815,-0.95556640625,0.274658203125,-0.05322265625,9.31297709923664,-0.061068702290076333,0.8244274809160305,7078,0,-7,155.5224609375,-2.1294482221007893,-0.009198,False,,False,,,,,30
182.113,3.297655570000188,-0.95556640625,0.274658203125,-0.05322265625,9.31297709923664,-0.061068702290076333,0.8244274809160305,7078,0,-7,155.5224609375,-2.1294482221007893,-0.009198,False,,False,,,,,30
182.118,3.2997403540000505,-0.961669921875,0.279541015625,-0.052490234375,11.81679389312977,-0.3053435114503817,0.33587786259541985,7077,-4,-6,155.50048828125,-2.151035120432992,-0.007884,False,,False,,,,,30
182.118,3.301737176000188,-0.961669921875,0.279541015625,-0.052490234375,11.81679389312977,-0.3053435114503817,0.33587786259541985,7077,-4,-6,155.50048828125,-2.151035120432992,-0.007884,False,,False,,,,,30
182.123,3.303741498000136,-0.96533203125,0.25830078125,-0.044677734375,10.717557251908396,-0.7938931297709924,-0.030534351145038167,7076,-4,-7,155.478515625,-2.2334393746591976,-0.009198,False,,False,,,,,30
182.123,3.305739524000046,-0.96533203125,0.25830078125,-0.044677734375,10.717557251908396,-0.7938931297709924,-0.030534351145038167,7076,-4,-7,155.478515625,-2.2334393746591976,-0.009198,False,,False,,,,,30
182.123,3.3077447720002056,-0.96533203125,0.25830078125,-0.044677734375,10.717557251908396,-0.7938931297709924,-0.030534351145038167,7076,-4,-7,155.478515625,-2.2334393746591976,-0.009198,False,,False,,,,,30
182.12800000000001,3.309745446000079,-0.960205078125,0.27099609375,-0.04296875,7.755725190839694,-0.21374045801526717,0.061068702290076333,7073,-10,-2,155.41259765625,-2.365565035460369,-0.002628,False,,False,,,,,30
182.12800000000001,3.311747101000037,-0.960205078125,0.27099609375,-0.04296875,7.755725190839694,-0.21374045801526717,0.061068702290076333,7073,-10,-2,155.41259765625,-2.365565035460369,-0.002628,False,,False,,,,,30
182.133,3.3137484230001064,-0.955810546875,0.284912109375,-0.046630859375,8.51908396946565,-0.183206106870229,0.030534351145038167,7071,-10,-3,155.36865234375,-2.5851492550517325,-0.003942,False,,False,,,,,30
182.133,3.3157468190001964,-0.955810546875,0.284912109375,-0.046630859375,8.51908396946565,-0.183206106870229,0.030534351145038167,7071,-10,-3,155.36865234375,-2.5851492550517325,-0.003942,False,,False,,,,,30
182.133,3.3177519740002026,-0.955810546875,0.284912109375,-0.046630859375,8.51908396946565,-0.183206106870229,0.030534351145038167,7071,-10,-3,155.36865234375,-2.5851492550517325,-0.003942,False,,False,,,,,30
182.138,3.3200528870002017,-0.957275390625,0.290283203125,-0.05322265625,9.465648854961831,-0.15267175572519084,-0.12213740458015267,7069,-9,-6,155.32470703125,-2.8747711188715552,-0.007884,False,,False,,,,,30
182.138,3.3220509870000114,-0.957275390625,0.290283203125,-0.05322265625,9.465648854961831,-0.15267175572519084,-0.12213740458015267,7069,-9,-6,155.32470703125,-2.8747711188715552,-0.007884,False,,False,,,,,30
182.143,3.3240693640000245,-0.951904296875,0.282958984375,-0.05322265625,9.893129770992367,-0.12213740458015267,0.0,7070,-3,-2,155.3466796875,-3.155169170355188,-0.002628,False,,False,,,,,30
182.143,3.3260688530001516,-0.951904296875,0.282958984375,-0.05322265625,9.893129770992367,-0.12213740458015267,0.0,7070,-3,-2,155.3466796875,-3.155169170355188,-0.002628,False,,False,,,,,30
182.143,3.3280726000000413,-0.951904296875,0.282958984375,-0.05322265625,9.893129770992367,-0.12213740458015267,0.0,7070,-3,-2,155.3466796875,-3.155169170355188,-0.002628,False,,False,,,,,30
182.148,3.3300734040001316,-0.954833984375,0.288330078125,-0.0546875,9.465648854961831,0.42748091603053434,0.366412213740458,7067,-7,-5,155.28076171875,-3.3919519804469815,-0.0065699999999999995,False,,False,,,,,30
182.148,3.3320729670001583,-0.954833984375,0.288330078125,-0.0546875,9.465648854961831,0.42748091603053434,0.366412213740458,7067,-7,-5,155.28076171875,-3.3919519804469815,-0.0065699999999999995,False,,False,,,,,30
182.153,3.3340766400001485,-0.948486328125,0.29052734375,-0.051025390625,9.435114503816793,0.549618320610687,0.4580152671755725,7066,-13,-7,155.2587890625,-3.6365374808097237,-0.009198,False,,False,,,,,30
182.153,3.3360778330002177,-0.948486328125,0.29052734375,-0.051025390625,9.435114503816793,0.549618320610687,0.4580152671755725,7066,-13,-7,155.2587890625,-3.6365374808097237,-0.009198,False,,False,,,,,30
182.153,3.338078932000144,-0.948486328125,0.29052734375,-0.051025390625,9.435114503816793,0.549618320610687,0.4580152671755725,7066,-13,-7,155.2587890625,-3.6365374808097237,-0.009198,False,,False,,,,,30
182.15800000000002,3.340081254000097,-0.94677734375,0.29443359375,-0.051025390625,9.679389312977099,0.8244274809160305,0.5190839694656488,7062,-18,-5,155.1708984375,-3.93185878494019,-0.0065699999999999995,False,,False,,,,,30
182.15800000000002,3.3420810950001396,-0.94677734375,0.29443359375,-0.051025390625,9.679389312977099,0.8244274809160305,0.5190839694656488,7062,-18,-5,155.1708984375,-3.93185878494019,-0.0065699999999999995,False,,False,,,,,30
182.163,3.3440845090001403,-0.9482421875,0.296142578125,-0.052001953125,9.770992366412214,0.732824427480916,0.6717557251908397,7061,-12,-8,155.14892578125,-4.2812925268087385,-0.010512,False,,False,,,,,30
182.163,3.3460880350000934,-0.9482421875,0.296142578125,-0.052001953125,9.770992366412214,0.732824427480916,0.6717557251908397,7061,-12,-8,155.14892578125,-4.2812925268087385,-0.010512,False,,False,,,,,30
182.163,3.3480862460000935,-0.9482421875,0.296142578125,-0.052001953125,9.770992366412214,0.732824427480916,0.6717557251908397,7061,-12,-8,155.14892578125,-4.2812925268087385,-0.010512,False,,False,,,,,30
182.168,3.3500884750001205,-0.939697265625,0.3076171875,-0.05029296875,9.770992366412214,1.1908396946564885,1.2213740458015268,7057,-20,0,155.06103515625,-4.670966057762235,0.0,False,,False,,,,,30
182.168,3.352089167000031,-0.939697265625,0.3076171875,-0.05029296875,9.770992366412214,1.1908396946564885,1.2213740458015268,7057,-20,0,155.06103515625,-4.670966057762235,0.0,False,,False,,,,,30
182.173,3.3540942860001906,-0.93603515625,0.314208984375,-0.050537109375,9.618320610687023,1.282442748091603,1.648854961832061,7052,-24,-5,154.951171875,-5.152344878472441,-0.0065699999999999995,False,,False,,,,,30
182.173,3.3560918480000055,-0.93603515625,0.314208984375,-0.050537109375,9.618320610687023,1.282442748091603,1.648854961832061,7052,-24,-5,154.951171875,-5.152344878472441,-0.0065699999999999995,False,,False,,,,,30
182.173,3.3580972810000276,-0.93603515625,0.314208984375,-0.050537109375,9.618320610687023,1.282442748091603,1.648854961832061,7052,-24,-5,154.951171875,-5.152344878472441,-0.0065699999999999995,False,,False,,,,,30
182.178,3.360097622000012,-0.925537109375,0.320556640625,-0.047119140625,8.977099236641221,1.7404580152671756,2.4122137404580153,7042,-45,0,154.7314453125,-5.8626800079326635,0.0,False,,False,,,,,30
182.178,3.3620962210000016,-0.925537109375,0.320556640625,-0.047119140625,8.977099236641221,1.7404580152671756,2.4122137404580153,7042,-45,0,154.7314453125,-5.8626800079326635,0.0,False,,False,,,,,30
182.183,3.3641005620002034,-0.917724609375,0.34619140625,-0.049072265625,7.175572519083969,2.229007633587786,4.641221374045801,7021,-96,3,154.27001953125,-7.104545764674772,0.003942,False,,False,,,,,30
182.183,3.366098291000071,-0.917724609375,0.34619140625,-0.049072265625,7.175572519083969,2.229007633587786,4.641221374045801,7021,-96,3,154.27001953125,-7.104545764674772,0.003942,False,,False,,,,,30
182.183,3.3681034280000404,-0.917724609375,0.34619140625,-0.049072265625,7.175572519083969,2.229007633587786,4.641221374045801,7021,-96,3,154.27001953125,-7.104545764674772,0.003942,False,,False,,,,,30
182.18800000000002,3.370103565000136,-0.901123046875,0.3525390625,-0.051025390625,5.1603053435114505,2.717557251908397,6.351145038167939,6990,-131,5,153.5888671875,-9.362285566646092,0.0065699999999999995,False,,False,,,,,30
182.18800000000002,3.372106553000094,-0.901123046875,0.3525390625,-0.051025390625,5.1603053435114505,2.717557251908397,6.351145038167939,6990,-131,5,153.5888671875,-9.362285566646092,0.0065699999999999995,False,,False,,,,,30
182.193,3.3741070790001686,-0.909423828125,0.364501953125,-0.060546875,8.916030534351144,3.450381679389313,6.473282442748092,6962,-117,-2,152.9736328125,-12.883425813900102,-0.002628,False,,False,,,,,30
182.193,3.3761079190001055,-0.909423828125,0.364501953125,-0.060546875,8.916030534351144,3.450381679389313,6.473282442748092,6962,-117,-2,152.9736328125,-12.883425813900102,-0.002628,False,,False,,,,,30
182.193,3.37810964900018,-0.909423828125,0.364501953125,-0.060546875,8.916030534351144,3.450381679389313,6.473282442748092,6962,-117,-2,152.9736328125,-12.883425813900102,-0.002628,False,,False,,,,,30
182.198,3.3801122300001225,-0.897705078125,0.356689453125,-0.06640625,9.618320610687023,3.0839694656488548,7.0534351145038165,6933,-128,0,152.33642578125,-17.490829900931047,0.0,False,,False,,,,,30
182.198,3.3821120520001386,-0.897705078125,0.356689453125,-0.06640625,9.618320610687023,3.0839694656488548,7.0534351145038165,6933,-128,0,152.33642578125,-17.490829900931047,0.0,False,,False,,,,,30
182.203,3.3841135590000704,-0.92138671875,0.3408203125,-0.052978515625,10.839694656488549,2.259541984732824,6.229007633587786,6904,-120,0,151.69921875,-22.924972349598825,0.0,False,,False,,,,,30
182.203,3.386115936000124,-0.92138671875,0.3408203125,-0.052978515625,10.839694656488549,2.259541984732824,6.229007633587786,6904,-120,0,151.69921875,-22.924972349598825,0.0,False,,False,,,,,30
182.203,3.388115462000087,-0.92138671875,0.3408203125,-0.052978515625,10.839694656488549,2.259541984732824,6.229007633587786,6904,-120,0,151.69921875,-22.924972349598825,0.0,False,,False,,,,,30
182.208,3.3901170430001457,-0.899169921875,0.34912109375,-0.05322265625,8.0,2.931297709923664,7.908396946564885,6867,-170,0,150.88623046875,-29.115762385349345,0.0,False,,False,,,,,30
182.208,3.392116569000109,-0.899169921875,0.34912109375,-0.05322265625,8.0,2.931297709923664,7.908396946564885,6867,-170,0,150.88623046875,-29.115762385349345,0.0,False,,False,,,,,30
182.213,3.3941195580000567,-0.9375,0.362060546875,-0.0419921875,10.687022900763358,2.4427480916030535,7.572519083969465,6833,-150,-3,150.13916015625,-36.05722232186545,-0.003942,False,,False,,,,,30
182.213,3.396119491000036,-0.9375,0.362060546875,-0.0419921875,10.687022900763358,2.4427480916030535,7.572519083969465,6833,-150,-3,150.13916015625,-36.05722232186545,-0.003942,False,,False,,,,,30
182.213,3.398122164000142,-0.9375,0.362060546875,-0.0419921875,10.687022900763358,2.4427480916030535,7.572519083969465,6833,-150,-3,150.13916015625,-36.05722232186545,-0.003942,False,,False,,,,,30
182.21800000000002,3.4001233570002114,-0.913330078125,0.348388671875,-0.0693359375,12.15267175572519,2.6259541984732824,7.419847328244274,6800,-141,0,149.4140625,-43.542485889489825,0.0,False,,False,,,,,30
182.21800000000002,3.4021230300002117,-0.913330078125,0.348388671875,-0.0693359375,12.15267175572519,2.6259541984732824,7.419847328244274,6800,-141,0,149.4140625,-43.542485889489825,0.0,False,,False,,,,,30
182.223,3.404127371000186,-0.957763671875,0.34033203125,-0.056396484375,15.633587786259541,0.732824427480916,5.526717557251908,6777,-96,1,148.90869140625,-51.13584102724878,0.001314,False,,False,,,,,30
182.223,3.406133693000129,-0.957763671875,0.34033203125,-0.056396484375,15.633587786259541,0.732824427480916,5.526717557251908,6777,-96,1,148.90869140625,-51.13584102724878,0.001314,False,,False,,,,,30
182.223,3.4081301810001605,-0.957763671875,0.34033203125,-0.056396484375,15.633587786259541,0.732824427480916,5.526717557251908,6777,-96,1,148.90869140625,-51.13584102724878,0.001314,False,,False,,,,,30
182.228,3.4101363180000135,-0.94287109375,0.35009765625,-0.0615234375,14.839694656488549,0.8854961832061068,5.83206106870229,6753,-107,9,148.38134765625,-58.391373736529694,0.011826,False,,False,,,,,30
182.228,3.4121351770002093,-0.94287109375,0.35009765625,-0.0615234375,14.839694656488549,0.8854961832061068,5.83206106870229,6753,-107,9,148.38134765625,-58.391373736529694,0.011826,False,,False,,,,,30
182.233,3.41413694400012,-0.951904296875,0.356201171875,-0.044189453125,13.770992366412214,0.4580152671755725,5.648854961832061,6724,-118,0,147.744140625,-65.21123201474764,0.0,False,,False,,,,,30
182.233,3.416139006000094,-0.951904296875,0.356201171875,-0.044189453125,13.770992366412214,0.4580152671755725,5.648854961832061,6724,-118,0,147.744140625,-65.21123201474764,0.0,False,,False,,,,,30
182.233,3.4181421430000682,-0.951904296875,0.356201171875,-0.044189453125,13.770992366412214,0.4580152671755725,5.648854961832061,6724,-118,0,147.744140625,-65.21123201474764,0.0,False,,False,,,,,30
182.238,3.420141428000079,-0.950927734375,0.384765625,-0.0478515625,15.053435114503817,1.282442748091603,6.412213740458015,6696,-135,5,147.12890625,-71.72671016066478,0.0065699999999999995,False,,False,,,,,30
182.238,3.422142509000196,-0.950927734375,0.384765625,-0.0478515625,15.053435114503817,1.282442748091603,6.412213740458015,6696,-135,5,147.12890625,-71.72671016066478,0.0065699999999999995,False,,False,,,,,30
182.243,3.42414444200017,-0.92822265625,0.39892578125,-0.055908203125,13.740458015267174,0.6106870229007634,7.877862595419847,6657,-170,1,146.27197265625,-78.11579719409366,0.001314,False,,False,,,,,30
182.243,3.42614526400007,-0.92822265625,0.39892578125,-0.055908203125,13.740458015267174,0.6106870229007634,7.877862595419847,6657,-170,1,146.27197265625,-78.11579719409366,0.001314,False,,False,,,,,30
182.243,3.4281473450000703,-0.92822265625,0.39892578125,-0.055908203125,13.740458015267174,0.6106870229007634,7.877862595419847,6657,-170,1,146.27197265625,-78.11579719409366,0.001314,False,,False,,,,,30
182.248,3.430150575000198,-0.918212890625,0.423828125,-0.06298828125,12.183206106870228,1.0381679389312977,11.17557251908397,6616,-198,-2,145.37109375,-84.67257358332364,-0.002628,False,,False,,,,,30
182.248,3.4321482850000393,-0.918212890625,0.423828125,-0.06298828125,12.183206106870228,1.0381679389312977,11.17557251908397,6616,-198,-2,145.37109375,-84.67257358332364,-0.002628,False,,False,,,,,30
182.25300000000001,3.4341521630001353,-0.919921875,0.4345703125,-0.050537109375,10.717557251908396,0.0,12.274809160305344,6561,-241,-5,144.16259765625,-91.73630238620328,-0.0065699999999999995,False,,False,,,,,30
182.25300000000001,3.4361524110001938,-0.919921875,0.4345703125,-0.050537109375,10.717557251908396,0.0,12.274809160305344,6561,-241,-5,144.16259765625,-91.73630238620328,-0.0065699999999999995,False,,False,,,,,30
182.25300000000001,3.438217140000006,-0.919921875,0.4345703125,-0.050537109375,10.717557251908396,0.0,12.274809160305344,6561,-241,-5,144.16259765625,-91.73630238620328,-0.0065699999999999995,False,,False,,,,,30
182.258,3.4402160730001015,-0.88330078125,0.418701171875,-0.068603515625,9.98473282442748,1.1603053435114503,13.282442748091603,6498,-277,0,142.7783203125,-99.72690466232473,0.0,False,,False,,,,,30
182.258,3.4422397830001046,-0.88330078125,0.418701171875,-0.068603515625,9.98473282442748,1.1603053435114503,13.282442748091603,6498,-277,0,142.7783203125,-99.72690466232473,0.0,False,,False,,,,,30
182.263,3.4442205310001555,-0.9169921875,0.447998046875,-0.05078125,12.061068702290076,1.2519083969465647,14.931297709923664,6430,-296,0,141.2841796875,-108.93475647788088,0.0,False,,False,,,,,30
182.263,3.446225205000019,-0.9169921875,0.447998046875,-0.05078125,12.061068702290076,1.2519083969465647,14.931297709923664,6430,-296,0,141.2841796875,-108.93475647788088,0.0,False,,False,,,,,30
182.263,3.448228027000141,-0.9169921875,0.447998046875,-0.05078125,12.061068702290076,1.2519083969465647,14.931297709923664,6430,-296,0,141.2841796875,-108.93475647788088,0.0,False,,False,,,,,30
182.268,3.4502291640001204,-0.89794921875,0.41943359375,-0.06787109375,15.48091603053435,-0.15267175572519084,15.694656488549617,6359,-313,-5,139.72412109375,-119.3625030904994,-0.0065699999999999995,False,,False,,,,,30
182.268,3.452230338000163,-0.89794921875,0.41943359375,-0.06787109375,15.48091603053435,-0.15267175572519084,15.694656488549617,6359,-313,-5,139.72412109375,-119.3625030904994,-0.0065699999999999995,False,,False,,,,,30
182.273,3.4542325300001266,-0.909423828125,0.39404296875,-0.0712890625,18.442748091603054,-0.33587786259541985,15.14503816793893,6294,-280,-3,138.2958984375,-130.7400372980587,-0.003942,False,,False,,,,,30
182.273,3.4562337410000055,-0.909423828125,0.39404296875,-0.0712890625,18.442748091603054,-0.33587786259541985,15.14503816793893,6294,-280,-3,138.2958984375,-130.7400372980587,-0.003942,False,,False,,,,,30
182.273,3.458234803000096,-0.909423828125,0.39404296875,-0.0712890625,18.442748091603054,-0.33587786259541985,15.14503816793893,6294,-280,-3,138.2958984375,-130.7400372980587,-0.003942,False,,False,,,,,30
182.278,3.460236107000128,-0.9052734375,0.375244140625,-0.078369140625,19.48091603053435,-0.5801526717557252,14.564885496183205,6229,-276,-1,136.86767578125,-142.60465269803882,-0.001314,False,,False,,,,,31
182.278,3.462238651000007,-0.9052734375,0.375244140625,-0.078369140625,19.48091603053435,-0.5801526717557252,14.564885496183205,6229,-276,-1,136.86767578125,-142.60465269803882,-0.001314,False,,False,,,,,31
182.28300000000002,3.4642443990001084,-0.928466796875,0.375732421875,-0.067626953125,19.572519083969464,-0.8244274809160305,15.022900763358779,6161,-293,0,135.37353515625,-154.65741732409126,0.0,False,,False,,,,,31
182.28300000000002,3.4662615910001477,-0.928466796875,0.375732421875,-0.067626953125,19.572519083969464,-0.8244274809160305,15.022900763358779,6161,-293,0,135.37353515625,-154.65741732409126,0.0,False,,False,,,,,31
182.28300000000002,3.468261802000143,-0.928466796875,0.375732421875,-0.067626953125,19.572519083969464,-0.8244274809160305,15.022900763358779,6161,-293,0,135.37353515625,-154.65741732409126,0.0,False,,False,,,,,31
182.288,3.470263457000101,-0.92822265625,0.41748046875,-0.068359375,18.381679389312975,-1.5267175572519083,17.801526717557252,6091,-311,4,133.83544921875,-166.82041667126276,0.005256,False,,False,,,,,31
182.288,3.4722646120001173,-0.92822265625,0.41748046875,-0.068359375,18.381679389312975,-1.5267175572519083,17.801526717557252,6091,-311,4,133.83544921875,-166.82041667126276,0.005256,False,,False,,,,,31
182.293,3.4742657490000965,-0.9228515625,0.422607421875,-0.07666015625,19.450381679389313,-2.0763358778625953,18.381679389312975,6017,-331,-2,132.20947265625,-179.07457198322973,-0.002628,False,,False,,,,,31
182.293,3.476267497000208,-0.9228515625,0.422607421875,-0.07666015625,19.450381679389313,-2.0763358778625953,18.381679389312975,6017,-331,-2,132.20947265625,-179.07457198322973,-0.002628,False,,False,,,,,31
182.293,3.4782686340001874,-0.9228515625,0.422607421875,-0.07666015625,19.450381679389313,-2.0763358778625953,18.381679389312975,6017,-331,-2,132.20947265625,-179.07457198322973,-0.002628,False,,False,,,,,31
182.298,3.4802708450001774,-0.91162109375,0.434326171875,-0.091064453125,20.244274809160306,-2.259541984732824,19.083969465648853,5938,-350,2,130.4736328125,-191.46625269415827,0.002628,False,,False,,,,,30
182.298,3.4822709070001565,-0.91162109375,0.434326171875,-0.091064453125,20.244274809160306,-2.259541984732824,19.083969465648853,5938,-350,2,130.4736328125,-191.46625269415827,0.002628,False,,False,,,,,30
182.303,3.484274785000025,-0.915283203125,0.421142578125,-0.08935546875,21.16030534351145,-2.900763358778626,19.32824427480916,5860,-343,3,128.759765625,-204.00045496553435,0.003942,False,,False,,,,,30
182.303,3.486274885000057,-0.915283203125,0.421142578125,-0.08935546875,21.16030534351145,-2.900763358778626,19.32824427480916,5860,-343,3,128.759765625,-204.00045496553435,0.003942,False,,False,,,,,30
182.303,3.4882768550000947,-0.915283203125,0.421142578125,-0.08935546875,21.16030534351145,-2.900763358778626,19.32824427480916,5860,-343,3,128.759765625,-204.00045496553435,0.003942,False,,False,,,,,30
182.308,3.4902752690002217,-0.913330078125,0.421875,-0.087890625,24.12213740458015,-4.030534351145038,20.671755725190838,5781,-348,2,127.02392578125,-216.53605648792265,0.002628,False,,False,,,,,30
182.308,3.492363313000169,-0.913330078125,0.421875,-0.087890625,24.12213740458015,-4.030534351145038,20.671755725190838,5781,-348,2,127.02392578125,-216.53605648792265,0.002628,False,,False,,,,,30
182.31300000000002,3.4942794870000853,-0.92236328125,0.422607421875,-0.08251953125,24.549618320610687,-5.007633587786259,22.106870229007633,5701,-350,8,125.26611328125,-228.9230607975179,0.010512,False,,False,,,,,30
182.31300000000002,3.4962813830002233,-0.92236328125,0.422607421875,-0.08251953125,24.549618320610687,-5.007633587786259,22.106870229007633,5701,-350,8,125.26611328125,-228.9230607975179,0.010512,False,,False,,,,,30
182.31300000000002,3.4982854270001553,-0.92236328125,0.422607421875,-0.08251953125,24.549618320610687,-5.007633587786259,22.106870229007633,5701,-350,8,125.26611328125,-228.9230607975179,0.010512,False,,False,,,,,30
182.318,3.500285323000071,-0.916015625,0.422119140625,-0.085205078125,23.022900763358777,-5.893129770992366,23.297709923664122,5614,-385,5,123.3544921875,-241.16537103494332,0.0065699999999999995,False,,False,,,,,30
182.318,3.50228531200014,-0.916015625,0.422119140625,-0.085205078125,23.022900763358777,-5.893129770992366,23.297709923664122,5614,-385,5,123.3544921875,-241.16537103494332,0.0065699999999999995,False,,False,,,,,30
182.323,3.504288412000051,-0.93017578125,0.42822265625,-0.078125,22.442748091603054,-6.778625954198473,24.335877862595417,5522,-398,-9,121.3330078125,-253.42750690726058,-0.011826,False,,False,,,,,30
182.323,3.506287345000146,-0.93017578125,0.42822265625,-0.078125,22.442748091603054,-6.778625954198473,24.335877862595417,5522,-398,-9,121.3330078125,-253.42750690726058,-0.011826,False,,False,,,,,30
182.323,3.50829207400011,-0.93017578125,0.42822265625,-0.078125,22.442748091603054,-6.778625954198473,24.335877862595417,5522,-398,-9,121.3330078125,-253.42750690726058,-0.011826,False,,False,,,,,30
182.328,3.510290063000184,-0.92431640625,0.44140625,-0.073486328125,22.198473282442748,-7.419847328244274,26.534351145038165,5425,-426,-5,119.20166015625,-265.8787452711399,-0.0065699999999999995,False,,False,,,,,30
182.328,3.5122914220000894,-0.92431640625,0.44140625,-0.073486328125,22.198473282442748,-7.419847328244274,26.534351145038165,5425,-426,-5,119.20166015625,-265.8787452711399,-0.0065699999999999995,False,,False,,,,,30
182.333,3.514294614000164,-0.921875,0.440673828125,-0.07958984375,23.69465648854962,-7.603053435114504,27.297709923664122,5328,-427,-8,117.0703125,-278.54665298080386,-0.010512,False,,False,,,,,30
182.333,3.516293436000069,-0.921875,0.440673828125,-0.07958984375,23.69465648854962,-7.603053435114504,27.297709923664122,5328,-427,-8,117.0703125,-278.54665298080386,-0.010512,False,,False,,,,,30
182.333,3.518296147000001,-0.921875,0.440673828125,-0.07958984375,23.69465648854962,-7.603053435114504,27.297709923664122,5328,-427,-8,117.0703125,-278.54665298080386,-0.010512,False,,False,,,,,30
182.338,3.520298265000065,-0.921875,0.43701171875,-0.076416015625,25.34351145038168,-8.122137404580153,27.603053435114504,5230,-428,-2,114.9169921875,-291.3079293379781,-0.002628,False,,False,,,,,30
182.338,3.5222992160001922,-0.921875,0.43701171875,-0.076416015625,25.34351145038168,-8.122137404580153,27.603053435114504,5230,-428,-2,114.9169921875,-291.3079293379781,-0.002628,False,,False,,,,,30
182.34300000000002,3.5243023900000026,-0.91357421875,0.431396484375,-0.0771484375,25.068702290076335,-8.274809160305344,28.610687022900763,5130,-430,8,112.7197265625,-304.02616546926265,0.010512,False,,False,,,,,30
182.34300000000002,3.5263011200001984,-0.91357421875,0.431396484375,-0.0771484375,25.068702290076335,-8.274809160305344,28.610687022900763,5130,-430,8,112.7197265625,-304.02616546926265,0.010512,False,,False,,,,,30
182.34300000000002,3.528304645000162,-0.91357421875,0.431396484375,-0.0771484375,25.068702290076335,-8.274809160305344,28.610687022900763,5130,-430,8,112.7197265625,-304.02616546926265,0.010512,False,,False,,,,,30
182.348,3.5303130409999994,-0.923095703125,0.41748046875,-0.0673828125,24.671755725190838,-7.908396946564885,29.709923664122137,5024,-459,8,110.390625,-316.6991950289047,0.010512,False,,False,,,,,30
182.348,3.5323075480000625,-0.923095703125,0.41748046875,-0.0673828125,24.671755725190838,-7.908396946564885,29.709923664122137,5024,-459,8,110.390625,-316.6991950289047,0.010512,False,,False,,,,,30
182.353,3.5343074440002056,-0.938720703125,0.417724609375,-0.06103515625,26.106870229007633,-9.068702290076336,29.038167938931295,4922,-445,6,108.1494140625,-329.30994369463235,0.007884,False,,False,,,,,30
182.353,3.536309211000116,-0.938720703125,0.417724609375,-0.06103515625,26.106870229007633,-9.068702290076336,29.038167938931295,4922,-445,6,108.1494140625,-329.30994369463235,0.007884,False,,False,,,,,30
182.353,3.538310792000175,-0.938720703125,0.417724609375,-0.06103515625,26.106870229007633,-9.068702290076336,29.038167938931295,4922,-445,6,108.1494140625,-329.30994369463235,0.007884,False,,False,,,,,30
182.358,3.5403115950000483,-0.9306640625,0.406005859375,-0.073974609375,28.458015267175572,-8.6412213740458,29.221374045801525,4823,-429,7,105.97412109375,-341.6062855144573,0.009198,False,,False,,,,,30
182.358,3.5423114170000645,-0.9306640625,0.406005859375,-0.073974609375,28.458015267175572,-8.6412213740458,29.221374045801525,4823,-429,7,105.97412109375,-341.6062855144573,0.009198,False,,False,,,,,30
182.363,3.544314480000139,-0.952392578125,0.402099609375,-0.064208984375,30.77862595419847,-9.251908396946565,29.251908396946565,4729,-420,-3,103.90869140625,-353.22254406745895,-0.003942,False,,False,,,,,30
182.363,3.5463143020001553,-0.952392578125,0.402099609375,-0.064208984375,30.77862595419847,-9.251908396946565,29.251908396946565,4729,-420,-3,103.90869140625,-353.22254406745895,-0.003942,False,,False,,,,,30
