state_time,loop_time,accel_x,accel_y,accel_z,gyro_x,gyro_y,gyro_z,motor_angle,motor_velocity,motor_current,hip_angle,hip_velocity,hip_torque_from_current,did_heel_strike,gait_phase,did_toe_off,commanded_current,commanded_position,commanded_torque,commanded_voltage,temperature
127.545,1.773171290000164,-0.953369140625,0.27685546875,-0.039306640625,4.580152671755725,-4.396946564885496,0.6412213740458015,6089,1,1,133.79150390625,0.19079959876522332,0.001314,False,,False,,,,,30
127.545,1.7751720190001379,-0.953369140625,0.27685546875,-0.039306640625,4.580152671755725,-4.396946564885496,0.6412213740458015,6089,1,1,133.79150390625,0.19079959876522332,0.001314,False,,False,,,,,30
127.55,1.7771732300000167,-0.954345703125,0.27490234375,-0.0419921875,4.6106870229007635,-4.6106870229007635,0.6717557251908397,6088,0,1,133.76953125,0.0693657417749173,0.001314,False,,False,,,,,30
127.55,1.7791745890001494,-0.954345703125,0.27490234375,-0.0419921875,4.6106870229007635,-4.6106870229007635,0.6717557251908397,6088,0,1,133.76953125,0.0693657417749173,0.001314,False,,False,,,,,30
127.555,1.7811764479999965,-0.955078125,0.27294921875,-0.04541015625,4.641221374045801,-4.7328244274809155,0.6106870229007634,6089,-3,0,133.79150390625,-0.08630968468485956,0.0,False,,False,,,,,30
127.555,1.7831781219999812,-0.955078125,0.27294921875,-0.04541015625,4.641221374045801,-4.7328244274809155,0.6106870229007634,6089,-3,0,133.79150390625,-0.08630968468485956,0.0,False,,False,,,,,30
127.555,1.7851834990001407,-0.955078125,0.27294921875,-0.04541015625,4.641221374045801,-4.7328244274809155,0.6106870229007634,6089,-3,0,133.79150390625,-0.08630968468485956,0.0,False,,False,,,,,30
127.56,1.7871819510000932,-0.95654296875,0.270751953125,-0.04931640625,4.977099236641221,-4.549618320610687,0.8244274809160305,6091,1,0,133.83544921875,-0.16764117272545442,0.0,False,,False,,,,,30
127.56,1.789182958000083,-0.95654296875,0.270751953125,-0.04931640625,4.977099236641221,-4.549618320610687,0.8244274809160305,6091,1,0,133.83544921875,-0.16764117272545442,0.0,False,,False,,,,,30
127.565,1.7911843910001153,-0.962890625,0.268798828125,-0.048095703125,5.038167938931298,-4.366412213740458,0.7633587786259541,6090,1,1,133.8134765625,-0.16963946005716843,0.001314,False,,False,,,,,30
127.565,1.793185269000105,-0.962890625,0.268798828125,-0.048095703125,5.038167938931298,-4.366412213740458,0.7633587786259541,6090,1,1,133.8134765625,-0.16963946005716843,0.001314,False,,False,,,,,30
127.565,1.795302071000151,-0.962890625,0.268798828125,-0.048095703125,5.038167938931298,-4.366412213740458,0.7633587786259541,6090,1,1,133.8134765625,-0.16963946005716843,0.001314,False,,False,,,,,30
127.57000000000001,1.7973019120001936,-0.96044921875,0.26318359375,-0.047607421875,5.129770992366412,-4.030534351145038,0.8549618320610687,6091,3,3,133.83544921875,-0.15293927656358017,0.003942,False,,False,,,,,30
127.57000000000001,1.799304382000173,-0.96044921875,0.26318359375,-0.047607421875,5.129770992366412,-4.030534351145038,0.8549618320610687,6091,3,3,133.83544921875,-0.15293927656358017,0.003942,False,,False,,,,,30
127.575,1.80130509300011,-0.95849609375,0.261474609375,-0.044189453125,5.374045801526718,-3.877862595419847,0.916030534351145,6091,-2,3,133.83544921875,-0.12082700737196664,0.003942,False,,False,,,,,30
127.575,1.8033075069999995,-0.95849609375,0.261474609375,-0.044189453125,5.374045801526718,-3.877862595419847,0.916030534351145,6091,-2,3,133.83544921875,-0.12082700737196664,0.003942,False,,False,,,,,30
127.575,1.8053580140001486,-0.95849609375,0.261474609375,-0.044189453125,5.374045801526718,-3.877862595419847,0.916030534351145,6091,-2,3,133.83544921875,-0.12082700737196664,0.003942,False,,False,,,,,30
127.58,1.8081379800000832,-0.957275390625,0.25732421875,-0.038818359375,5.343511450381679,-3.297709923664122,0.9465648854961831,6092,6,4,133.857421875,-0.06036163187835472,0.005256,False,,False,,,,,30
127.58,1.8104871699999876,-0.957275390625,0.25732421875,-0.038818359375,5.343511450381679,-3.297709923664122,0.9465648854961831,6092,6,4,133.857421875,-0.06036163187835472,0.005256,False,,False,,,,,30
127.58500000000001,1.8124894550001045,-0.9560546875,0.25390625,-0.0361328125,5.404580152671755,-3.145038167938931,0.7938931297709924,6093,1,1,133.87939453125,0.03888009123144378,0.001314,False,,False,,,,,30
127.58500000000001,1.8144914990000416,-0.9560546875,0.25390625,-0.0361328125,5.404580152671755,-3.145038167938931,0.7938931297709924,6093,1,1,133.87939453125,0.03888009123144378,0.001314,False,,False,,,,,30
127.59,1.8164925430000949,-0.9609375,0.252197265625,-0.031494140625,5.312977099236641,-2.9618320610687023,1.0381679389312977,6094,0,3,133.9013671875,0.1850625660067237,0.003942,False,,False,,,,,30
127.59,1.8184930500001428,-0.9609375,0.252197265625,-0.031494140625,5.312977099236641,-2.9618320610687023,1.0381679389312977,6094,0,3,133.9013671875,0.1850625660067237,0.003942,False,,False,,,,,30
127.595,1.8204968540001119,-0.96142578125,0.2509765625,-0.0322265625,5.404580152671755,-3.0229007633587783,0.8244274809160305,6094,6,8,133.9013671875,0.3525096787108391,0.010512,False,,False,,,,,30
127.595,1.8224967680000645,-0.96142578125,0.2509765625,-0.0322265625,5.404580152671755,-3.0229007633587783,0.8244274809160305,6094,6,8,133.9013671875,0.3525096787108391,0.010512,False,,False,,,,,30
127.595,1.824626330000001,-0.96142578125,0.2509765625,-0.0322265625,5.404580152671755,-3.0229007633587783,0.8244274809160305,6094,6,8,133.9013671875,0.3525096787108391,0.010512,False,,False,,,,,30
127.60000000000001,1.8265806340000381,-0.9619140625,0.2529296875,-0.03125,5.099236641221374,-2.6564885496183206,0.916030534351145,6094,-2,3,133.9013671875,0.5035022104685576,0.003942,False,,False,,,,,30
127.60000000000001,1.8285818080000809,-0.9619140625,0.2529296875,-0.03125,5.099236641221374,-2.6564885496183206,0.916030534351145,6094,-2,3,133.9013671875,0.5035022104685576,0.003942,False,,False,,,,,30
127.605,1.8305839070001184,-0.962158203125,0.24755859375,-0.03076171875,4.793893129770992,-2.5038167938931295,1.0381679389312977,6096,-2,10,133.9453125,0.6544474741291244,0.013139999999999999,False,,False,,,,,30
127.605,1.8325846550001188,-0.962158203125,0.24755859375,-0.03076171875,4.793893129770992,-2.5038167938931295,1.0381679389312977,6096,-2,10,133.9453125,0.6544474741291244,0.013139999999999999,False,,False,,,,,30
127.605,1.8345869960000982,-0.962158203125,0.24755859375,-0.03076171875,4.793893129770992,-2.5038167938931295,1.0381679389312977,6096,-2,10,133.9453125,0.6544474741291244,0.013139999999999999,False,,False,,,,,30
127.61,1.8366226690000076,-0.96728515625,0.24853515625,-0.031005859375,4.67175572519084,-2.4122137404580153,1.0076335877862594,6096,2,0,133.9453125,0.8349976483112358,0.0,False,,False,,,,,30
127.61,1.8386235469999974,-0.96728515625,0.24853515625,-0.031005859375,4.67175572519084,-2.4122137404580153,1.0076335877862594,6096,2,0,133.9453125,0.8349976483112358,0.0,False,,False,,,,,30
127.61,1.8406239610001194,-0.96728515625,0.24853515625,-0.031005859375,4.67175572519084,-2.4122137404580153,1.0076335877862594,6096,2,0,133.9453125,0.8349976483112358,0.0,False,,False,,,,,30
127.61500000000001,1.8426483939999798,-0.966796875,0.25048828125,-0.033203125,4.580152671755725,-2.3206106870229006,1.0687022900763359,6098,4,-1,133.9892578125,1.03771692945556,-0.001314,False,,False,,,,,30
127.61500000000001,1.8446489380000912,-0.966796875,0.25048828125,-0.033203125,4.580152671755725,-2.3206106870229006,1.0687022900763359,6098,4,-1,133.9892578125,1.03771692945556,-0.001314,False,,False,,,,,30
127.62,1.8466497970000546,-0.961181640625,0.251220703125,-0.03125,4.244274809160305,-2.229007633587786,0.8549618320610687,6098,1,4,133.9892578125,1.2560590414803303,0.005256,False,,False,,,,,30
127.62,1.848652045000108,-0.961181640625,0.251220703125,-0.03125,4.244274809160305,-2.229007633587786,0.8549618320610687,6098,1,4,133.9892578125,1.2560590414803303,0.005256,False,,False,,,,,30
127.62,1.8506533670001772,-0.961181640625,0.251220703125,-0.03125,4.244274809160305,-2.229007633587786,0.8549618320610687,6098,1,4,133.9892578125,1.2560590414803303,0.005256,False,,False,,,,,30
127.625,1.8526539850001882,-0.964599609375,0.248291015625,-0.03076171875,4.244274809160305,-2.045801526717557,0.732824427480916,6100,10,11,134.033203125,1.4843172384947745,0.014454,False,,False,,,,,30
127.625,1.8546557330000724,-0.964599609375,0.248291015625,-0.03076171875,4.244274809160305,-2.045801526717557,0.732824427480916,6100,10,11,134.033203125,1.4843172384947745,0.014454,False,,False,,,,,30
127.63000000000001,1.8566572770000676,-0.963623046875,0.252197265625,-0.0322265625,4.030534351145038,-2.0763358778625953,0.7938931297709924,6100,5,9,134.033203125,1.7175702859439266,0.011826,False,,False,,,,,30
127.63000000000001,1.858659025000179,-0.963623046875,0.252197265625,-0.0322265625,4.030534351145038,-2.0763358778625953,0.7938931297709924,6100,5,9,134.033203125,1.7175702859439266,0.011826,False,,False,,,,,30
127.635,1.860668440000154,-0.96044921875,0.254638671875,-0.035400390625,4.122137404580153,-1.9541984732824427,0.7633587786259541,6101,5,-4,134.05517578125,1.935710264931879,-0.005256,False,,False,,,,,30
127.635,1.8626667620001172,-0.96044921875,0.254638671875,-0.035400390625,4.122137404580153,-1.9541984732824427,0.7633587786259541,6101,5,-4,134.05517578125,1.935710264931879,-0.005256,False,,False,,,,,30
127.635,1.8646705650000968,-0.96044921875,0.254638671875,-0.035400390625,4.122137404580153,-1.9541984732824427,0.7633587786259541,6101,5,-4,134.05517578125,1.935710264931879,-0.005256,False,,False,,,,,30
127.64,1.8666720170001554,-0.95751953125,0.25048828125,-0.03369140625,3.847328244274809,-1.83206106870229,0.5190839694656488,6101,1,-7,134.05517578125,2.1221221335967524,-0.009198,False,,False,,,,,30
127.64,1.8686707650001608,-0.95751953125,0.25048828125,-0.03369140625,3.847328244274809,-1.83206106870229,0.5190839694656488,6101,1,-7,134.05517578125,2.1221221335967524,-0.009198,False,,False,,,,,30
127.64,1.8706726049999816,-0.95751953125,0.25048828125,-0.03369140625,3.847328244274809,-1.83206106870229,0.5190839694656488,6101,1,-7,134.05517578125,2.1221221335967524,-0.009198,False,,False,,,,,30
127.645,1.8727033530001336,-0.957763671875,0.252197265625,-0.03515625,3.847328244274809,-1.7099236641221374,0.4580152671755725,6103,6,1,134.09912109375,2.295186905389406,0.001314,False,,False,,,,,30
127.645,1.8747048780001023,-0.957763671875,0.252197265625,-0.03515625,3.847328244274809,-1.7099236641221374,0.4580152671755725,6103,6,1,134.09912109375,2.295186905389406,0.001314,False,,False,,,,,30
127.65,1.8767060889999811,-0.95654296875,0.253173828125,-0.033203125,4.0,-1.4045801526717556,0.33587786259541985,6103,10,4,134.09912109375,2.470486183238469,0.005256,False,,False,,,,,30
127.65,1.8787079109999922,-0.95654296875,0.253173828125,-0.033203125,4.0,-1.4045801526717556,0.33587786259541985,6103,10,4,134.09912109375,2.470486183238469,0.005256,False,,False,,,,,30
127.65,1.8807089000001724,-0.95654296875,0.253173828125,-0.033203125,4.0,-1.4045801526717556,0.33587786259541985,6103,10,4,134.09912109375,2.470486183238469,0.005256,False,,False,,,,,30
127.655,1.8827101480001147,-0.9580078125,0.254638671875,-0.03271484375,3.847328244274809,-1.3435114503816794,0.2748091603053435,6103,0,2,134.09912109375,2.6132854507510817,0.002628,False,,False,,,,,30
127.655,1.8847121180001523,-0.9580078125,0.254638671875,-0.03271484375,3.847328244274809,-1.3435114503816794,0.2748091603053435,6103,0,2,134.09912109375,2.6132854507510817,0.002628,False,,False,,,,,30
127.66,1.8867139030001,-0.9609375,0.253173828125,-0.032958984375,3.969465648854962,-1.282442748091603,0.0916030534351145,6104,-1,-1,134.12109375,2.7108920194794885,-0.001314,False,,False,,,,,30
127.66,1.8887149280001267,-0.9609375,0.253173828125,-0.032958984375,3.969465648854962,-1.282442748091603,0.0916030534351145,6104,-1,-1,134.12109375,2.7108920194794885,-0.001314,False,,False,,,,,30
127.665,1.890717583000196,-0.95947265625,0.251953125,-0.035400390625,4.183206106870228,-1.1603053435114503,-0.030534351145038167,6105,3,2,134.14306640625,2.801081275582008,0.002628,False,,False,,,,,30
127.665,1.8927179790000537,-0.95947265625,0.251953125,-0.035400390625,4.183206106870228,-1.1603053435114503,-0.030534351145038167,6105,3,2,134.14306640625,2.801081275582008,0.002628,False,,False,,,,,30
127.665,1.8947186899999906,-0.95947265625,0.251953125,-0.035400390625,4.183206106870228,-1.1603053435114503,-0.030534351145038167,6105,3,2,134.14306640625,2.801081275582008,0.002628,False,,False,,,,,30
127.67,1.8968272340000567,-0.958740234375,0.25537109375,-0.03515625,4.122137404580153,-1.0076335877862594,-0.061068702290076333,6105,-3,-3,134.14306640625,2.8837543466057722,-0.003942,False,,False,,,,,30
127.67,1.8988270370000464,-0.958740234375,0.25537109375,-0.03515625,4.122137404580153,-1.0076335877862594,-0.061068702290076333,6105,-3,-3,134.14306640625,2.8837543466057722,-0.003942,False,,False,,,,,30
127.675,1.9008276370000203,-0.96142578125,0.254150390625,-0.033447265625,4.152671755725191,-1.1908396946564885,-0.3053435114503817,6104,-2,-1,134.12109375,2.911190565477019,-0.001314,False,,False,,,,,30
127.675,1.9028289590000895,-0.96142578125,0.254150390625,-0.033447265625,4.152671755725191,-1.1908396946564885,-0.3053435114503817,6104,-2,-1,134.12109375,2.911190565477019,-0.001314,False,,False,,,,,30
127.675,1.9048300770000424,-0.96142578125,0.254150390625,-0.033447265625,4.152671755725191,-1.1908396946564885,-0.3053435114503817,6104,-2,-1,134.12109375,2.911190565477019,-0.001314,False,,False,,,,,30
127.68,1.906831769000064,-0.962646484375,0.256103515625,-0.033447265625,4.152671755725191,-1.129770992366412,-0.2748091603053435,6106,5,-6,134.1650390625,2.891986044266089,-0.007884,False,,False,,,,,30
127.68,1.9088330540000698,-0.962646484375,0.256103515625,-0.033447265625,4.152671755725191,-1.129770992366412,-0.2748091603053435,6106,5,-6,134.1650390625,2.891986044266089,-0.007884,False,,False,,,,,30
127.685,1.910834690999991,-0.96435546875,0.25732421875,-0.0302734375,4.091603053435114,-1.1908396946564885,-0.3053435114503817,6106,0,-1,134.1650390625,2.881759739679907,-0.001314,False,,False,,,,,30
127.685,1.912836309000113,-0.96435546875,0.25732421875,-0.0302734375,4.091603053435114,-1.1908396946564885,-0.3053435114503817,6106,0,-1,134.1650390625,2.881759739679907,-0.001314,False,,False,,,,,30
127.685,1.9148406500000874,-0.96435546875,0.25732421875,-0.0302734375,4.091603053435114,-1.1908396946564885,-0.3053435114503817,6106,0,-1,134.1650390625,2.881759739679907,-0.001314,False,,False,,,,,30
127.69,1.9168420830001196,-0.966064453125,0.25537109375,-0.030517578125,4.0,-1.129770992366412,-0.366412213740458,6106,-3,6,134.1650390625,2.8632823863912833,0.007884,False,,False,,,,,30
127.69,1.9188416640001833,-0.966064453125,0.25537109375,-0.030517578125,4.0,-1.129770992366412,-0.366412213740458,6106,-3,6,134.1650390625,2.8632823863912833,0.007884,False,,False,,,,,30
127.69500000000001,1.9208458750001682,-0.962158203125,0.256103515625,-0.03076171875,4.183206106870228,-1.2213740458015268,-0.4580152671755725,6107,4,13,134.18701171875,2.822249490285887,0.017082,False,,False,,,,,30
127.69500000000001,1.9228446230001737,-0.962158203125,0.256103515625,-0.03076171875,4.183206106870228,-1.2213740458015268,-0.4580152671755725,6107,4,13,134.18701171875,2.822249490285887,0.017082,False,,False,,,,,30
127.69500000000001,1.9248464260001583,-0.962158203125,0.256103515625,-0.03076171875,4.183206106870228,-1.2213740458015268,-0.4580152671755725,6107,4,13,134.18701171875,2.822249490285887,0.017082,False,,False,,,,,30
127.7,1.926850155000011,-0.966064453125,0.254150390625,-0.030517578125,3.969465648854962,-1.4961832061068703,-0.3969465648854962,6106,-1,9,134.1650390625,2.7629279399254383,0.011826,False,,False,,,,,30
127.7,1.9288491250001698,-0.966064453125,0.254150390625,-0.030517578125,3.969465648854962,-1.4961832061068703,-0.3969465648854962,6106,-1,9,134.1650390625,2.7629279399254383,0.011826,False,,False,,,,,30
127.705,1.930850984000017,-0.960693359375,0.253173828125,-0.03173828125,4.0,-1.3740458015267174,-0.48854961832061067,6106,-4,4,134.1650390625,2.657323653656218,0.005256,False,,False,,,,,30
127.705,1.9328528250000545,-0.960693359375,0.253173828125,-0.03173828125,4.0,-1.3740458015267174,-0.48854961832061067,6106,-4,4,134.1650390625,2.657323653656218,0.005256,False,,False,,,,,30
127.705,1.9348541100000602,-0.960693359375,0.253173828125,-0.03173828125,4.0,-1.3740458015267174,-0.48854961832061067,6106,-4,4,134.1650390625,2.657323653656218,0.005256,False,,False,,,,,30
127.71000000000001,1.936856895000119,-0.964599609375,0.252197265625,-0.030517578125,3.9389312977099236,-1.5267175572519083,-0.3053435114503817,6107,2,2,134.18701171875,2.5304177630750755,0.002628,False,,False,,,,,30
127.71000000000001,1.93885745700004,-0.964599609375,0.252197265625,-0.030517578125,3.9389312977099236,-1.5267175572519083,-0.3053435114503817,6107,2,2,134.18701171875,2.5304177630750755,0.002628,False,,False,,,,,30
127.715,1.9408587980001357,-0.9638671875,0.248779296875,-0.02734375,4.061068702290076,-1.4045801526717556,-0.3053435114503817,6106,-1,6,134.1650390625,2.4034326036887594,0.007884,False,,False,,,,,30
127.715,1.9428611200000887,-0.9638671875,0.248779296875,-0.02734375,4.061068702290076,-1.4045801526717556,-0.3053435114503817,6106,-1,6,134.1650390625,2.4034326036887594,0.007884,False,,False,,,,,30
127.715,1.9448643310001898,-0.9638671875,0.248779296875,-0.02734375,4.061068702290076,-1.4045801526717556,-0.3053435114503817,6106,-1,6,134.1650390625,2.4034326036887594,0.007884,False,,False,,,,,30
127.72,1.946866097000111,-0.95556640625,0.248779296875,-0.02978515625,3.7557251908396947,-1.3435114503816794,-0.6106870229007634,6107,-2,4,134.18701171875,2.2623050885360434,0.005256,False,,False,,,,,30
127.72,1.948865029999979,-0.95556640625,0.248779296875,-0.02978515625,3.7557251908396947,-1.3435114503816794,-0.6106870229007634,6107,-2,4,134.18701171875,2.2623050885360434,0.005256,False,,False,,,,,30
127.72500000000001,1.9508684070001436,-0.95654296875,0.246337890625,-0.029296875,3.847328244274809,-1.2213740458015268,-0.5190839694656488,6107,0,4,134.18701171875,2.127297920876629,0.005256,False,,False,,,,,30
127.72500000000001,1.952867655000091,-0.95654296875,0.246337890625,-0.029296875,3.847328244274809,-1.2213740458015268,-0.5190839694656488,6107,0,4,134.18701171875,2.127297920876629,0.005256,False,,False,,,,,30
127.72500000000001,1.9548695510000016,-0.95654296875,0.246337890625,-0.029296875,3.847328244274809,-1.2213740458015268,-0.5190839694656488,6107,0,4,134.18701171875,2.127297920876629,0.005256,False,,False,,,,,30
127.73,1.9568764100001772,-0.95654296875,0.243896484375,-0.02734375,3.66412213740458,-1.2213740458015268,-0.366412213740458,6107,5,10,134.18701171875,1.9993704076918977,0.013139999999999999,False,,False,,,,,30
127.73,1.9588749540000663,-0.95654296875,0.243896484375,-0.02734375,3.66412213740458,-1.2213740458015268,-0.366412213740458,6107,5,10,134.18701171875,1.9993704076918977,0.013139999999999999,False,,False,,,,,30
127.735,1.960876849999977,-0.957275390625,0.2392578125,-0.0263671875,3.541984732824427,-1.1603053435114503,-0.4580152671755725,6107,-4,8,134.18701171875,1.8633075095746952,0.010512,False,,False,,,,,30
127.735,1.9628777650000302,-0.957275390625,0.2392578125,-0.0263671875,3.541984732824427,-1.1603053435114503,-0.4580152671755725,6107,-4,8,134.18701171875,1.8633075095746952,0.010512,False,,False,,,,,30
127.735,1.9648799940000572,-0.957275390625,0.2392578125,-0.0263671875,3.541984732824427,-1.1603053435114503,-0.4580152671755725,6107,-4,8,134.18701171875,1.8633075095746952,0.010512,False,,False,,,,,30
127.74000000000001,1.966880872000047,-0.9599609375,0.234375,-0.026611328125,3.2061068702290076,-1.0076335877862594,-0.3969465648854962,6107,0,-2,134.18701171875,1.7224049223980382,-0.002628,False,,False,,,,,30
127.74000000000001,1.9688823600001797,-0.9599609375,0.234375,-0.026611328125,3.2061068702290076,-1.0076335877862594,-0.3969465648854962,6107,0,-2,134.18701171875,1.7224049223980382,-0.002628,False,,False,,,,,30
127.74000000000001,1.9708830710001166,-0.9599609375,0.234375,-0.026611328125,3.2061068702290076,-1.0076335877862594,-0.3969465648854962,6107,0,-2,134.18701171875,1.7224049223980382,-0.002628,False,,False,,,,,30
127.745,1.9728850040000907,-0.9609375,0.23681640625,-0.02978515625,2.8396946564885495,-0.6412213740458015,-0.5190839694656488,6108,1,1,134.208984375,1.5954074461194703,0.001314,False,,False,,,,,30
127.745,1.9748889560000862,-0.9609375,0.23681640625,-0.02978515625,2.8396946564885495,-0.6412213740458015,-0.5190839694656488,6108,1,1,134.208984375,1.5954074461194703,0.001314,False,,False,,,,,30
127.75,1.9768873520001762,-0.96044921875,0.23486328125,-0.026123046875,2.748091603053435,-0.6412213740458015,-0.549618320610687,6107,-3,0,134.18701171875,1.4818908511925852,0.0,False,,False,,,,,30
127.75,1.9788908590001029,-0.96044921875,0.23486328125,-0.026123046875,2.748091603053435,-0.6412213740458015,-0.549618320610687,6107,-3,0,134.18701171875,1.4818908511925852,0.0,False,,False,,,,,30
127.75,1.9810069950001434,-0.96044921875,0.23486328125,-0.026123046875,2.748091603053435,-0.6412213740458015,-0.549618320610687,6107,-3,0,134.18701171875,1.4818908511925852,0.0,False,,False,,,,,30
127.75500000000001,1.9830058910001753,-0.95947265625,0.236572265625,-0.027099609375,2.2900763358778624,-0.6412213740458015,-0.48854961832061067,6108,1,0,134.208984375,1.365389093995065,0.0,False,,False,,,,,30
127.75500000000001,1.985007176000181,-0.95947265625,0.236572265625,-0.027099609375,2.2900763358778624,-0.6412213740458015,-0.48854961832061067,6108,1,0,134.208984375,1.365389093995065,0.0,False,,False,,,,,30
127.76,1.9870130350000181,-0.96435546875,0.233154296875,-0.029296875,1.7404580152671756,-0.366412213740458,-0.549618320610687,6108,-3,1,134.208984375,1.2639915353554136,0.001314,False,,False,,,,,30
127.76,1.9890129679999973,-0.96435546875,0.233154296875,-0.029296875,1.7404580152671756,-0.366412213740458,-0.549618320610687,6108,-3,1,134.208984375,1.2639915353554136,0.001314,False,,False,,,,,30
127.76,1.9910139010000876,-0.96435546875,0.233154296875,-0.029296875,1.7404580152671756,-0.366412213740458,-0.549618320610687,6108,-3,1,134.208984375,1.2639915353554136,0.001314,False,,False,,,,,30
127.765,1.993120111000053,-0.967529296875,0.232177734375,-0.032470703125,1.4045801526717556,-0.33587786259541985,-0.366412213740458,6109,2,0,134.23095703125,1.192623445855435,0.0,False,,False,,,,,30
127.765,1.9951216550000481,-0.967529296875,0.232177734375,-0.032470703125,1.4045801526717556,-0.33587786259541985,-0.366412213740458,6109,2,0,134.23095703125,1.192623445855435,0.0,False,,False,,,,,30
127.77,1.9972208100000444,-0.96826171875,0.2353515625,-0.03173828125,1.282442748091603,-0.0916030534351145,-0.5190839694656488,6110,9,0,134.2529296875,1.163344959473102,0.0,False,,False,,,,,30
127.77,1.999222873000008,-0.96826171875,0.2353515625,-0.03173828125,1.282442748091603,-0.0916030534351145,-0.5190839694656488,6110,9,0,134.2529296875,1.163344959473102,0.0,False,,False,,,,,30
127.775,2.0012258430001566,-0.963623046875,0.236328125,-0.030517578125,1.0076335877862594,0.24427480916030533,-0.5190839694656488,6108,-6,-6,134.208984375,1.137896080751433,-0.007884,False,,False,,,,,30
127.775,2.003224424000109,-0.963623046875,0.236328125,-0.030517578125,1.0076335877862594,0.24427480916030533,-0.5190839694656488,6108,-6,-6,134.208984375,1.137896080751433,-0.007884,False,,False,,,,,30
127.775,2.0052277649999724,-0.963623046875,0.236328125,-0.030517578125,1.0076335877862594,0.24427480916030533,-0.5190839694656488,6108,-6,-6,134.208984375,1.137896080751433,-0.007884,False,,False,,,,,30
127.78,2.0072292720001315,-0.968017578125,0.236083984375,-0.034912109375,0.3969465648854962,0.42748091603053434,-0.6412213740458015,6109,1,7,134.23095703125,1.0682751724446922,0.009198,False,,False,,,,,30
127.78,2.0092274270000416,-0.968017578125,0.236083984375,-0.034912109375,0.3969465648854962,0.42748091603053434,-0.6412213740458015,6109,1,7,134.23095703125,1.0682751724446922,0.009198,False,,False,,,,,30
127.785,2.0112319340000795,-0.96875,0.238525390625,-0.032958984375,0.0916030534351145,0.6412213740458015,-0.4580152671755725,6110,0,8,134.2529296875,1.0104296082819164,0.010512,False,,False,,,,,30
127.785,2.013229904000127,-0.96875,0.238525390625,-0.032958984375,0.0916030534351145,0.6412213740458015,-0.4580152671755725,6110,0,8,134.2529296875,1.0104296082819164,0.010512,False,,False,,,,,30
127.785,2.0152350410000963,-0.96875,0.238525390625,-0.032958984375,0.0916030534351145,0.6412213740458015,-0.4580152671755725,6110,0,8,134.2529296875,1.0104296082819164,0.010512,False,,False,,,,,30
127.79,2.017232344000149,-0.967529296875,0.24365234375,-0.033203125,-0.15267175572519084,0.7938931297709924,-0.5190839694656488,6112,4,2,134.296875,1.026942509394971,0.002628,False,,False,,,,,30
127.79,2.019233258999975,-0.967529296875,0.24365234375,-0.033203125,-0.15267175572519084,0.7938931297709924,-0.5190839694656488,6112,4,2,134.296875,1.026942509394971,0.002628,False,,False,,,,,30
127.795,2.0212380990001293,-0.96435546875,0.238525390625,-0.031494140625,-0.4580152671755725,1.0687022900763359,-0.732824427480916,6112,2,4,134.296875,1.1054677353775424,0.005256,False,,False,,,,,30
127.795,2.0232366060001823,-0.96435546875,0.238525390625,-0.031494140625,-0.4580152671755725,1.0687022900763359,-0.732824427480916,6112,2,4,134.296875,1.1054677353775424,0.005256,False,,False,,,,,30
127.795,2.0252541690001635,-0.96435546875,0.238525390625,-0.031494140625,-0.4580152671755725,1.0687022900763359,-0.732824427480916,6112,2,4,134.296875,1.1054677353775424,0.005256,False,,False,,,,,30
127.8,2.0272407500001464,-0.97119140625,0.238525390625,-0.028564453125,-1.0381679389312977,1.0381679389312977,-0.6412213740458015,6114,5,0,134.3408203125,1.218855375860189,0.0,False,,False,,,,,30
127.8,2.0292391280001993,-0.97119140625,0.238525390625,-0.028564453125,-1.0381679389312977,1.0381679389312977,-0.6412213740458015,6114,5,0,134.3408203125,1.218855375860189,0.0,False,,False,,,,,30
127.805,2.0312430980000045,-0.969970703125,0.2421875,-0.030029296875,-1.2213740458015268,1.129770992366412,-0.732824427480916,6114,4,-5,134.3408203125,1.3597865743946411,-0.0065699999999999995,False,,False,,,,,30
127.805,2.0332446980000896,-0.969970703125,0.2421875,-0.030029296875,-1.2213740458015268,1.129770992366412,-0.732824427480916,6114,4,-5,134.3408203125,1.3597865743946411,-0.0065699999999999995,False,,False,,,,,30
127.805,2.0352473160000955,-0.969970703125,0.2421875,-0.030029296875,-1.2213740458015268,1.129770992366412,-0.732824427480916,6114,4,-5,134.3408203125,1.3597865743946411,-0.0065699999999999995,False,,False,,,,,30
127.81,2.037249101000043,-0.967041015625,0.240234375,-0.029052734375,-1.3740458015267174,0.9465648854961831,-0.916030534351145,6117,7,0,134.40673828125,1.53765069526885,0.0,False,,False,,,,,30
127.81,2.0392471449999903,-0.967041015625,0.240234375,-0.029052734375,-1.3740458015267174,0.9465648854961831,-0.916030534351145,6117,7,0,134.40673828125,1.53765069526885,0.0,False,,False,,,,,30
127.815,2.0412525410001763,-0.967529296875,0.24267578125,-0.0302734375,-1.618320610687023,0.9770992366412213,-0.8244274809160305,6119,13,5,134.45068359375,1.7916044900429573,0.0065699999999999995,False,,False,,,,,30
127.815,2.0432502329999807,-0.967529296875,0.24267578125,-0.0302734375,-1.618320610687023,0.9770992366412213,-0.8244274809160305,6119,13,5,134.45068359375,1.7916044900429573,0.0065699999999999995,False,,False,,,,,30
127.815,2.045255055000098,-0.967529296875,0.24267578125,-0.0302734375,-1.618320610687023,0.9770992366412213,-0.8244274809160305,6119,13,5,134.45068359375,1.7916044900429573,0.0065699999999999995,False,,False,,,,,30
127.82000000000001,2.0472538400001667,-0.97119140625,0.23779296875,-0.027587890625,-1.7099236641221374,1.099236641221374,-1.1908396946564885,6121,10,1,134.49462890625,2.1214957971942217,0.001314,False,,False,,,,,30
127.82000000000001,2.049254995000183,-0.97119140625,0.23779296875,-0.027587890625,-1.7099236641221374,1.099236641221374,-1.1908396946564885,6121,10,1,134.49462890625,2.1214957971942217,0.001314,False,,False,,,,,30
127.825,2.051258835999988,-0.974609375,0.232421875,-0.0302734375,-1.3740458015267174,0.916030534351145,-1.4961832061068703,6127,27,-7,134.62646484375,2.5579283291381443,-0.009198,False,,False,,,,,30
127.825,2.0532595090000996,-0.974609375,0.232421875,-0.0302734375,-1.3740458015267174,0.916030534351145,-1.4961832061068703,6127,27,-7,134.62646484375,2.5579283291381443,-0.009198,False,,False,,,,,30
127.825,2.055460830000129,-0.974609375,0.232421875,-0.0302734375,-1.3740458015267174,0.916030534351145,-1.4961832061068703,6127,27,-7,134.62646484375,2.5579283291381443,-0.009198,False,,False,,,,,30
127.83,2.057456671000182,-0.978759765625,0.228271484375,-0.02978515625,-1.0687022900763359,0.6412213740458015,-2.1068702290076335,6133,33,-7,134.75830078125,3.2045574818064204,-0.009198,False,,False,,,,,30
127.83,2.0595049180001297,-0.978759765625,0.228271484375,-0.02978515625,-1.0687022900763359,0.6412213740458015,-2.1068702290076335,6133,33,-7,134.75830078125,3.2045574818064204,-0.009198,False,,False,,,,,30
127.83500000000001,2.061462666000125,-0.98388671875,0.212890625,-0.030029296875,0.2748091603053435,0.3969465648854962,-3.633587786259542,6149,73,-3,135.10986328125,4.240610145432403,-0.003942,False,,False,,,,,30
127.83500000000001,2.063542505999976,-0.98388671875,0.212890625,-0.030029296875,0.2748091603053435,0.3969465648854962,-3.633587786259542,6149,73,-3,135.10986328125,4.240610145432403,-0.003942,False,,False,,,,,30
127.83500000000001,2.0655420140001297,-0.98388671875,0.212890625,-0.030029296875,0.2748091603053435,0.3969465648854962,-3.633587786259542,6149,73,-3,135.10986328125,4.240610145432403,-0.003942,False,,False,,,,,30
127.85000000000001,2.07777164800018,-1.001708984375,0.20751953125,-0.017333984375,-1.465648854961832,-0.549618320610687,-7.114503816793893,6225,119,0,136.77978515625,6.054529398661579,0.0,False,,False,,,,,30
127.85000000000001,2.079771470000196,-1.001708984375,0.20751953125,-0.017333984375,-1.465648854961832,-0.549618320610687,-7.114503816793893,6225,119,0,136.77978515625,6.054529398661579,0.0,False,,False,,,,,30
127.855,2.0817727360001754,-0.997314453125,0.227783203125,-0.0234375,0.7633587786259541,0.030534351145038167,-7.236641221374046,6256,132,-2,137.4609375,9.039821882274788,-0.002628,False,,False,,,,,30
127.855,2.083774632000086,-0.997314453125,0.227783203125,-0.0234375,0.7633587786259541,0.030534351145038167,-7.236641221374046,6256,132,-2,137.4609375,9.039821882274788,-0.002628,False,,False,,,,,30
127.855,2.085776232000171,-0.997314453125,0.227783203125,-0.0234375,0.7633587786259541,0.030534351145038167,-7.236641221374046,6256,132,-2,137.4609375,9.039821882274788,-0.002628,False,,False,,,,,30
127.86,2.0877800170001137,-0.986083984375,0.226806640625,-0.02490234375,-1.5877862595419847,-0.2748091603053435,-7.419847328244274,6285,130,0,138.09814453125,13.259610488492639,0.0,False,,False,,,,,30
127.86,2.089781950000088,-0.986083984375,0.226806640625,-0.02490234375,-1.5877862595419847,-0.2748091603053435,-7.419847328244274,6285,130,0,138.09814453125,13.259610488492639,0.0,False,,False,,,,,30
127.86500000000001,2.0917833640000936,-0.9716796875,0.24462890625,-0.030517578125,-2.2900763358778624,0.9770992366412213,-6.137404580152672,6314,129,-3,138.7353515625,18.47829166319088,-0.003942,False,,False,,,,,30
127.86500000000001,2.093788945000142,-0.9716796875,0.24462890625,-0.030517578125,-2.2900763358778624,0.9770992366412213,-6.137404580152672,6314,129,-3,138.7353515625,18.47829166319088,-0.003942,False,,False,,,,,30
127.86500000000001,2.0957905080001638,-0.9716796875,0.24462890625,-0.030517578125,-2.2900763358778624,0.9770992366412213,-6.137404580152672,6314,129,-3,138.7353515625,18.47829166319088,-0.003942,False,,False,,,,,30
127.87,2.097788256000058,-0.95263671875,0.250732421875,-0.03369140625,-4.854961832061068,0.916030534351145,-5.465648854961832,6335,90,1,139.19677734375,24.298469837275594,0.001314,False,,False,,,,,30
127.87,2.0997899480000797,-0.95263671875,0.250732421875,-0.03369140625,-4.854961832061068,0.916030534351145,-5.465648854961832,6335,90,1,139.19677734375,24.298469837275594,0.001314,False,,False,,,,,30
127.875,2.1017908440001065,-0.96484375,0.24755859375,-0.027099609375,-3.4198473282442747,0.8854961832061068,-6.198473282442748,6364,127,1,139.833984375,30.41057019494751,0.001314,False,,False,,,,,30
127.875,2.103794222000033,-0.96484375,0.24755859375,-0.027099609375,-3.4198473282442747,0.8854961832061068,-6.198473282442748,6364,127,1,139.833984375,30.41057019494751,0.001314,False,,False,,,,,30
127.875,2.105793932000097,-0.96484375,0.24755859375,-0.027099609375,-3.4198473282442747,0.8854961832061068,-6.198473282442748,6364,127,1,139.833984375,30.41057019494751,0.001314,False,,False,,,,,30
127.88000000000001,2.107795847000034,-0.943603515625,0.25732421875,-0.0419921875,-4.122137404580153,1.8625954198473282,-4.549618320610687,6386,101,-9,140.3173828125,36.694433717377386,-0.011826,False,,False,,,,,30
127.88000000000001,2.1097969100001137,-0.943603515625,0.25732421875,-0.0419921875,-4.122137404580153,1.8625954198473282,-4.549618320610687,6386,101,-9,140.3173828125,36.694433717377386,-0.011826,False,,False,,,,,30
127.885,2.111798639000199,-0.951416015625,0.25537109375,-0.030029296875,-6.473282442748092,1.9541984732824427,-4.122137404580153,6406,85,-5,140.7568359375,42.90373685949788,-0.0065699999999999995,False,,False,,,,,30
127.885,2.113801294000041,-0.951416015625,0.25537109375,-0.030029296875,-6.473282442748092,1.9541984732824427,-4.122137404580153,6406,85,-5,140.7568359375,42.90373685949788,-0.0065699999999999995,False,,False,,,,,30
127.885,2.11580109800002,-0.951416015625,0.25537109375,-0.030029296875,-6.473282442748092,1.9541984732824427,-4.122137404580153,6406,85,-5,140.7568359375,42.90373685949788,-0.0065699999999999995,False,,False,,,,,30
127.89,2.117803123000158,-0.947021484375,0.265869140625,-0.03076171875,-5.893129770992366,2.5343511450381677,-3.6030534351145036,6420,72,4,141.064453125,48.69010187155851,0.005256,False,,False,,,,,30
127.89,2.1198048339999787,-0.947021484375,0.265869140625,-0.03076171875,-5.893129770992366,2.5343511450381677,-3.6030534351145036,6420,72,4,141.064453125,48.69010187155851,0.005256,False,,False,,,,,30
127.895,2.121806564000053,-0.93310546875,0.289306640625,-0.036865234375,-6.442748091603053,2.931297709923664,-2.015267175572519,6427,21,-5,141.21826171875,53.704337912213006,-0.0065699999999999995,False,,False,,,,,30
127.895,2.123808145000112,-0.93310546875,0.289306640625,-0.036865234375,-6.442748091603053,2.931297709923664,-2.015267175572519,6427,21,-5,141.21826171875,53.704337912213006,-0.0065699999999999995,False,,False,,,,,30
127.895,2.1258091700001387,-0.93310546875,0.289306640625,-0.036865234375,-6.442748091603053,2.931297709923664,-2.015267175572519,6427,21,-5,141.21826171875,53.704337912213006,-0.0065699999999999995,False,,False,,,,,30
127.9,2.127809954999975,-0.927734375,0.2880859375,-0.03662109375,-8.610687022900763,3.114503816793893,-0.0916030534351145,6426,-4,-7,141.1962890625,57.553885289025786,-0.009198,False,,False,,,,,30
127.9,2.1298113330001343,-0.927734375,0.2880859375,-0.03662109375,-8.610687022900763,3.114503816793893,-0.0916030534351145,6426,-4,-7,141.1962890625,57.553885289025786,-0.009198,False,,False,,,,,30
127.905,2.1318126920000395,-0.93505859375,0.29296875,-0.040771484375,-6.5038167938931295,4.122137404580153,0.183206106870229,6427,6,0,141.21826171875,60.03838190424943,0.0,False,,False,,,,,30
127.905,2.133815754000125,-0.93505859375,0.29296875,-0.040771484375,-6.5038167938931295,4.122137404580153,0.183206106870229,6427,6,0,141.21826171875,60.03838190424943,0.0,False,,False,,,,,30
127.905,2.1358153170001515,-0.93505859375,0.29296875,-0.040771484375,-6.5038167938931295,4.122137404580153,0.183206106870229,6427,6,0,141.21826171875,60.03838190424943,0.0,False,,False,,,,,30
127.91,2.1378175649999775,-0.940673828125,0.279052734375,-0.045654296875,-5.648854961832061,3.6946564885496183,0.21374045801526717,6426,-1,4,141.1962890625,61.24859729140701,0.005256,False,,False,,,,,30
127.91,2.1398204240001633,-0.940673828125,0.279052734375,-0.045654296875,-5.648854961832061,3.6946564885496183,0.21374045801526717,6426,-1,4,141.1962890625,61.24859729140701,0.005256,False,,False,,,,,30
127.915,2.1418196720001106,-0.94677734375,0.262451171875,-0.039794921875,-5.83206106870229,3.7557251908396947,0.0,6425,-7,-6,141.17431640625,61.34264457191087,-0.007884,False,,False,,,,,30
127.915,2.143823846000032,-0.94677734375,0.262451171875,-0.039794921875,-5.83206106870229,3.7557251908396947,0.0,6425,-7,-6,141.17431640625,61.34264457191087,-0.007884,False,,False,,,,,30
127.915,2.1458237050001117,-0.94677734375,0.262451171875,-0.039794921875,-5.83206106870229,3.7557251908396947,0.0,6425,-7,-6,141.17431640625,61.34264457191087,-0.007884,False,,False,,,,,30
127.92,2.147825378000107,-0.952880859375,0.2587890625,-0.034423828125,-6.412213740458015,3.847328244274809,-0.33587786259541985,6426,0,0,141.1962890625,60.500893956617766,0.0,False,,False,,,,,30
127.92,2.149825571000065,-0.952880859375,0.2587890625,-0.034423828125,-6.412213740458015,3.847328244274809,-0.33587786259541985,6426,0,0,141.1962890625,60.500893956617766,0.0,False,,False,,,,,30
127.925,2.1518274850000125,-0.958984375,0.262939453125,-0.032470703125,-6.351145038167939,3.7862595419847325,-0.33587786259541985,6427,3,-2,141.21826171875,58.951567094633425,-0.002628,False,,False,,,,,30
127.925,2.153831066000066,-0.958984375,0.262939453125,-0.032470703125,-6.351145038167939,3.7862595419847325,-0.33587786259541985,6427,3,-2,141.21826171875,58.951567094633425,-0.002628,False,,False,,,,,30
127.925,2.1558299990001615,-0.958984375,0.262939453125,-0.032470703125,-6.351145038167939,3.7862595419847325,-0.33587786259541985,6427,3,-2,141.21826171875,58.951567094633425,-0.002628,False,,False,,,,,30
127.93,2.1578311920000033,-0.959228515625,0.2666015625,-0.0341796875,-6.1679389312977095,3.633587786259542,-0.3969465648854962,6427,9,0,141.21826171875,56.84823064847597,0.0,False,,False,,,,,30
127.93,2.1598331060001783,-0.959228515625,0.2666015625,-0.0341796875,-6.1679389312977095,3.633587786259542,-0.3969465648854962,6427,9,0,141.21826171875,56.84823064847597,0.0,False,,False,,,,,30
127.935,2.161834021000004,-0.964111328125,0.266845703125,-0.03369140625,-5.923664122137405,3.32824427480916,-0.6106870229007634,6427,3,-2,141.21826171875,54.279726817545864,-0.002628,False,,False,,,,,30
127.935,2.1638366940001106,-0.964111328125,0.266845703125,-0.03369140625,-5.923664122137405,3.32824427480916,-0.6106870229007634,6427,3,-2,141.21826171875,54.279726817545864,-0.002628,False,,False,,,,,30
127.935,2.1658369980000316,-0.964111328125,0.266845703125,-0.03369140625,-5.923664122137405,3.32824427480916,-0.6106870229007634,6427,3,-2,141.21826171875,54.279726817545864,-0.002628,False,,False,,,,,30
127.94,2.1678387829999792,-0.967041015625,0.265625,-0.031982421875,-6.076335877862595,3.541984732824427,-0.7938931297709924,6426,0,1,141.1962890625,51.32717141351353,0.001314,False,,False,,,,,30
127.94,2.16983958600008,-0.967041015625,0.265625,-0.031982421875,-6.076335877862595,3.541984732824427,-0.7938931297709924,6426,0,1,141.1962890625,51.32717141351353,0.001314,False,,False,,,,,30
127.94500000000001,2.1718412230000013,-0.96875,0.263671875,-0.034423828125,-6.198473282442748,3.5725190839694654,-0.7633587786259541,6427,0,-2,141.21826171875,48.095867940658316,-0.002628,False,,False,,,,,30
127.94500000000001,2.17384400800006,-0.96875,0.263671875,-0.034423828125,-6.198473282442748,3.5725190839694654,-0.7633587786259541,6427,0,-2,141.21826171875,48.095867940658316,-0.002628,False,,False,,,,,30
127.94500000000001,2.1758439039999757,-0.96875,0.263671875,-0.034423828125,-6.198473282442748,3.5725190839694654,-0.7633587786259541,6427,0,-2,141.21826171875,48.095867940658316,-0.002628,False,,False,,,,,30
127.95,2.1778445960001136,-0.967529296875,0.26611328125,-0.03271484375,-6.076335877862595,3.633587786259542,-0.9465648854961831,6427,-2,-4,141.21826171875,44.70984389267837,-0.005256,False,,False,,,,,30
127.95,2.179847122000183,-0.967529296875,0.26611328125,-0.03271484375,-6.076335877862595,3.633587786259542,-0.9465648854961831,6427,-2,-4,141.21826171875,44.70984389267837,-0.005256,False,,False,,,,,30
127.955,2.181849055000157,-0.967041015625,0.2666015625,-0.030517578125,-6.229007633587786,3.541984732824427,-1.0076335877862594,6428,0,-7,141.240234375,41.259258613541874,-0.009198,False,,False,,,,,30
127.955,2.183851599000036,-0.967041015625,0.2666015625,-0.030517578125,-6.229007633587786,3.541984732824427,-1.0076335877862594,6428,0,-7,141.240234375,41.259258613541874,-0.009198,False,,False,,,,,30
127.955,2.1858516620000046,-0.967041015625,0.2666015625,-0.030517578125,-6.229007633587786,3.541984732824427,-1.0076335877862594,6428,0,-7,141.240234375,41.259258613541874,-0.009198,False,,False,,,,,30
127.96000000000001,2.1878531320001002,-0.9638671875,0.26171875,-0.032958984375,-6.1679389312977095,3.4198473282442747,-1.0687022900763359,6426,-1,-2,141.1962890625,37.77278035479344,-0.002628,False,,False,,,,,30
127.96000000000001,2.1898544910000055,-0.9638671875,0.26171875,-0.032958984375,-6.1679389312977095,3.4198473282442747,-1.0687022900763359,6426,-1,-2,141.1962890625,37.77278035479344,-0.002628,False,,False,,,,,30
127.965,2.191854979000027,-0.963134765625,0.2626953125,-0.02978515625,-6.229007633587786,3.480916030534351,-1.1603053435114503,6427,-6,-9,141.21826171875,34.2749296223629,-0.011826,False,,False,,,,,30
127.965,2.1938582270001916,-0.963134765625,0.2626953125,-0.02978515625,-6.229007633587786,3.480916030534351,-1.1603053435114503,6427,-6,-9,141.21826171875,34.2749296223629,-0.011826,False,,False,,,,,30
127.965,2.1958583640000597,-0.963134765625,0.2626953125,-0.02978515625,-6.229007633587786,3.480916030534351,-1.1603053435114503,6427,-6,-9,141.21826171875,34.2749296223629,-0.011826,False,,False,,,,,30
127.97,2.1978605560000233,-0.964599609375,0.259765625,-0.03271484375,-6.229007633587786,3.480916030534351,-1.1908396946564885,6426,0,-4,141.1962890625,30.834146061589614,-0.005256,False,,False,,,,,30
127.97,2.1998617490000925,-0.964599609375,0.259765625,-0.03271484375,-6.229007633587786,3.480916030534351,-1.1908396946564885,6426,0,-4,141.1962890625,30.834146061589614,-0.005256,False,,False,,,,,30
127.97500000000001,2.2018637000001036,-0.958984375,0.26220703125,-0.033447265625,-6.381679389312977,3.450381679389313,-1.1908396946564885,6426,3,1,141.1962890625,27.490983778692467,0.001314,False,,False,,,,,30
127.97500000000001,2.203866633000189,-0.958984375,0.26220703125,-0.033447265625,-6.381679389312977,3.450381679389313,-1.1908396946564885,6426,3,1,141.1962890625,27.490983778692467,0.001314,False,,False,,,,,30
127.97500000000001,2.205866770000057,-0.958984375,0.26220703125,-0.033447265625,-6.381679389312977,3.450381679389313,-1.1908396946564885,6426,3,1,141.1962890625,27.490983778692467,0.001314,False,,False,,,,,30
127.98,2.2078689250001844,-0.959716796875,0.265380859375,-0.0361328125,-6.259541984732824,3.6030534351145036,-1.3435114503816794,6426,-1,2,141.1962890625,24.277979714570886,0.002628,False,,False,,,,,30
127.98,2.2098698580000473,-0.959716796875,0.265380859375,-0.0361328125,-6.259541984732824,3.6030534351145036,-1.3435114503816794,6426,-1,2,141.1962890625,24.277979714570886,0.002628,False,,False,,,,,30
127.985,2.211870810000164,-0.962158203125,0.263671875,-0.03515625,-6.229007633587786,3.541984732824427,-1.4045801526717556,6426,1,-3,141.1962890625,21.236403225268973,-0.003942,False,,False,,,,,30
127.985,2.2138737800000854,-0.962158203125,0.263671875,-0.03515625,-6.229007633587786,3.541984732824427,-1.4045801526717556,6426,1,-3,141.1962890625,21.236403225268973,-0.003942,False,,False,,,,,30
127.985,2.2158728980000433,-0.962158203125,0.263671875,-0.03515625,-6.229007633587786,3.541984732824427,-1.4045801526717556,6426,1,-3,141.1962890625,21.236403225268973,-0.003942,False,,False,,,,,30
127.99000000000001,2.217875072000197,-0.96142578125,0.26904296875,-0.039794921875,-6.045801526717557,3.66412213740458,-1.4961832061068703,6426,-1,3,141.1962890625,18.38240524151559,0.003942,False,,False,,,,,30
127.99000000000001,2.2198759490001976,-0.96142578125,0.26904296875,-0.039794921875,-6.045801526717557,3.66412213740458,-1.4961832061068703,6426,-1,3,141.1962890625,18.38240524151559,0.003942,False,,False,,,,,30
127.995,2.2218773450001663,-0.9599609375,0.272216796875,-0.03857421875,-6.106870229007633,3.66412213740458,-1.3435114503816794,6426,1,2,141.1962890625,15.726789627743077,0.002628,False,,False,,,,,30
127.995,2.2238806490001934,-0.9599609375,0.272216796875,-0.03857421875,-6.106870229007633,3.66412213740458,-1.3435114503816794,6426,1,2,141.1962890625,15.726789627743077,0.002628,False,,False,,,,,30
127.995,2.225879434000035,-0.9599609375,0.272216796875,-0.03857421875,-6.106870229007633,3.66412213740458,-1.3435114503816794,6426,1,2,141.1962890625,15.726789627743077,0.002628,False,,False,,,,,30
128.0,2.2278808109999773,-0.958984375,0.271240234375,-0.037841796875,-6.076335877862595,3.847328244274809,-1.4961832061068703,6426,1,2,141.1962890625,13.275727269967858,0.002628,False,,False,,,,,30
128.0,2.229883670000163,-0.958984375,0.271240234375,-0.037841796875,-6.076335877862595,3.847328244274809,-1.4961832061068703,6426,1,2,141.1962890625,13.275727269967858,0.002628,False,,False,,,,,30
128.005,2.2318825110000944,-0.959716796875,0.26953125,-0.03857421875,-5.862595419847328,3.847328244274809,-1.5572519083969465,6427,0,-3,141.21826171875,11.04733660634553,-0.003942,False,,False,,,,,30
128.005,2.233887536000111,-0.959716796875,0.26953125,-0.03857421875,-5.862595419847328,3.847328244274809,-1.5572519083969465,6427,0,-3,141.21826171875,11.04733660634553,-0.003942,False,,False,,,,,30
128.005,2.235886043000164,-0.959716796875,0.26953125,-0.03857421875,-5.862595419847328,3.847328244274809,-1.5572519083969465,6427,0,-3,141.21826171875,11.04733660634553,-0.003942,False,,False,,,,,30
128.01,2.2378879760001382,-0.958251953125,0.272216796875,-0.0380859375,-5.893129770992366,3.9083969465648853,-1.5267175572519083,6427,7,-1,141.21826171875,9.053560277014931,-0.001314,False,,False,,,,,30
128.01,2.239889150000181,-0.958251953125,0.272216796875,-0.0380859375,-5.893129770992366,3.9083969465648853,-1.5267175572519083,6427,7,-1,141.21826171875,9.053560277014931,-0.001314,False,,False,,,,,30
128.01500000000001,2.241893694000055,-0.96044921875,0.269775390625,-0.036865234375,-5.893129770992366,3.9083969465648853,-1.4351145038167938,6426,1,-1,141.1962890625,7.2532508697926295,-0.001314,False,,False,,,,,30
128.01500000000001,2.2438935350000975,-0.96044921875,0.269775390625,-0.036865234375,-5.893129770992366,3.9083969465648853,-1.4351145038167938,6426,1,-1,141.1962890625,7.2532508697926295,-0.001314,False,,False,,,,,30
128.01500000000001,2.245893819999992,-0.96044921875,0.269775390625,-0.036865234375,-5.893129770992366,3.9083969465648853,-1.4351145038167938,6426,1,-1,141.1962890625,7.2532508697926295,-0.001314,False,,False,,,,,30
128.02,2.247896012000183,-0.95751953125,0.269775390625,-0.036376953125,-5.679389312977099,3.9083969465648853,-1.6793893129770991,6426,0,0,141.1962890625,5.609157823899788,0.0,False,,False,,,,,30
128.02,2.2498963900000035,-0.95751953125,0.269775390625,-0.036376953125,-5.679389312977099,3.9083969465648853,-1.6793893129770991,6426,0,0,141.1962890625,5.609157823899788,0.0,False,,False,,,,,30
128.025,2.251898545000131,-0.955322265625,0.2724609375,-0.03759765625,-5.740458015267175,4.213740458015267,-1.7709923664122136,6426,-3,-3,141.1962890625,4.13557936750531,-0.003942,False,,False,,,,,30
128.025,2.2539012740001,-0.955322265625,0.2724609375,-0.03759765625,-5.740458015267175,4.213740458015267,-1.7709923664122136,6426,-3,-3,141.1962890625,4.13557936750531,-0.003942,False,,False,,,,,30
128.025,2.2559004480001477,-0.955322265625,0.2724609375,-0.03759765625,-5.740458015267175,4.213740458015267,-1.7709923664122136,6426,-3,-3,141.1962890625,4.13557936750531,-0.003942,False,,False,,,,,30
128.03,2.2579024920000847,-0.953369140625,0.275634765625,-0.0361328125,-5.557251908396946,4.152671755725191,-1.8931297709923662,6427,0,-1,141.21826171875,2.857931109325338,-0.001314,False,,False,,,,,30
128.03,2.2599036840001645,-0.953369140625,0.275634765625,-0.0361328125,-5.557251908396946,4.152671755725191,-1.8931297709923662,6427,0,-1,141.21826171875,2.857931109325338,-0.001314,False,,False,,,,,30
128.035,2.261904821000144,-0.955322265625,0.2734375,-0.03466796875,-5.587786259541985,4.183206106870228,-1.9236641221374045,6426,-2,-5,141.1962890625,1.762820958334432,-0.0065699999999999995,False,,False,,,,,30
128.035,2.2639082730001974,-0.955322265625,0.2734375,-0.03466796875,-5.587786259541985,4.183206106870228,-1.9236641221374045,6426,-2,-5,141.1962890625,1.762820958334432,-0.0065699999999999995,False,,False,,,,,30
128.035,2.265907465000055,-0.955322265625,0.2734375,-0.03466796875,-5.587786259541985,4.183206106870228,-1.9236641221374045,6426,-2,-5,141.1962890625,1.762820958334432,-0.0065699999999999995,False,,False,,,,,30
128.04,2.2679085280001345,-0.959228515625,0.277099609375,-0.036865234375,-5.435114503816794,4.183206106870228,-2.1068702290076335,6426,-7,1,141.1962890625,0.8045617369100033,0.001314,False,,False,,,,,30
128.04,2.269917313000178,-0.959228515625,0.277099609375,-0.036865234375,-5.435114503816794,4.183206106870228,-2.1068702290076335,6426,-7,1,141.1962890625,0.8045617369100033,0.001314,False,,False,,,,,30
128.04500000000002,2.271910746000003,-0.955810546875,0.278076171875,-0.035400390625,-5.2824427480916025,4.2748091603053435,-2.015267175572519,6428,1,1,141.240234375,0.00658482670058088,0.001314,False,,False,,,,,30
128.04500000000002,2.2739123640001253,-0.955810546875,0.278076171875,-0.035400390625,-5.2824427480916025,4.2748091603053435,-2.015267175572519,6428,1,1,141.240234375,0.00658482670058088,0.001314,False,,False,,,,,30
128.04500000000002,2.275913778000131,-0.955810546875,0.278076171875,-0.035400390625,-5.2824427480916025,4.2748091603053435,-2.015267175572519,6428,1,1,141.240234375,0.00658482670058088,0.001314,False,,False,,,,,30
128.05,2.277914581999994,-0.95751953125,0.279296875,-0.0390625,-5.312977099236641,4.366412213740458,-2.229007633587786,6427,1,2,141.21826171875,-0.613815415448899,0.002628,False,,False,,,,,30
128.05,2.279916422000042,-0.95751953125,0.279296875,-0.0390625,-5.312977099236641,4.366412213740458,-2.229007633587786,6427,1,2,141.21826171875,-0.613815415448899,0.002628,False,,False,,,,,30
128.055,2.281917911000164,-0.95947265625,0.282470703125,-0.039794921875,-5.2824427480916025,4.33587786259542,-2.4122137404580153,6428,4,-4,141.240234375,-1.108395346241664,-0.005256,False,,False,,,,,30
128.055,2.283920511000133,-0.95947265625,0.282470703125,-0.039794921875,-5.2824427480916025,4.33587786259542,-2.4122137404580153,6428,4,-4,141.240234375,-1.108395346241664,-0.005256,False,,False,,,,,30
128.055,2.2859209069999906,-0.95947265625,0.282470703125,-0.039794921875,-5.2824427480916025,4.33587786259542,-2.4122137404580153,6428,4,-4,141.240234375,-1.108395346241664,-0.005256,False,,False,,,,,30
128.06,2.2879232469999806,-0.958251953125,0.280029296875,-0.038330078125,-5.129770992366412,4.33587786259542,-2.4122137404580153,6426,5,-3,141.1962890625,-1.5223071622288906,-0.003942,False,,False,,,,,30
128.06,2.2899245319999864,-0.958251953125,0.280029296875,-0.038330078125,-5.129770992366412,4.33587786259542,-2.4122137404580153,6426,5,-3,141.1962890625,-1.5223071622288906,-0.003942,False,,False,,,,,30
128.065,2.2919263539999974,-0.956787109375,0.280517578125,-0.039306640625,-5.007633587786259,4.244274809160305,-2.381679389312977,6426,0,0,141.1962890625,-1.894520070758252,0.0,False,,False,,,,,30
128.065,2.293928342000072,-0.956787109375,0.280517578125,-0.039306640625,-5.007633587786259,4.244274809160305,-2.381679389312977,6426,0,0,141.1962890625,-1.894520070758252,0.0,False,,False,,,,,30
128.065,2.2959287570001834,-0.956787109375,0.280517578125,-0.039306640625,-5.007633587786259,4.244274809160305,-2.381679389312977,6426,0,0,141.1962890625,-1.894520070758252,0.0,False,,False,,,,,30
128.07,2.297929634000184,-0.956298828125,0.28125,-0.037109375,-4.916030534351145,4.183206106870228,-2.4122137404580153,6426,-5,-3,141.1962890625,-2.210515680049795,-0.003942,False,,False,,,,,30
128.07,2.2999310120001155,-0.956298828125,0.28125,-0.037109375,-4.916030534351145,4.183206106870228,-2.4122137404580153,6426,-5,-3,141.1962890625,-2.210515680049795,-0.003942,False,,False,,,,,30
128.075,2.301932278000095,-0.958251953125,0.28271484375,-0.038818359375,-4.854961832061068,4.152671755725191,-2.3206106870229006,6427,2,-2,141.21826171875,-2.4271226783236415,-0.002628,False,,False,,,,,30
128.075,2.303934804000164,-0.958251953125,0.28271484375,-0.038818359375,-4.854961832061068,4.152671755725191,-2.3206106870229006,6427,2,-2,141.21826171875,-2.4271226783236415,-0.002628,False,,False,,,,,30
128.075,2.305935404000138,-0.958251953125,0.28271484375,-0.038818359375,-4.854961832061068,4.152671755725191,-2.3206106870229006,6427,2,-2,141.21826171875,-2.4271226783236415,-0.002628,False,,False,,,,,30
128.08,2.3079368740000064,-0.96044921875,0.279296875,-0.038330078125,-4.702290076335878,3.7862595419847325,-2.4732824427480917,6425,-9,-3,141.17431640625,-2.573301021457774,-0.003942,False,,False,,,,,30
128.08,2.3099373810000543,-0.96044921875,0.279296875,-0.038330078125,-4.702290076335878,3.7862595419847325,-2.4732824427480917,6425,-9,-3,141.17431640625,-2.573301021457774,-0.003942,False,,False,,,,,30
128.085,2.311938499000007,-0.95458984375,0.2763671875,-0.03857421875,-4.488549618320611,3.847328244274809,-2.351145038167939,6427,0,-6,141.21826171875,-2.674315733768188,-0.007884,False,,False,,,,,30
128.085,2.313958988000195,-0.95458984375,0.2763671875,-0.03857421875,-4.488549618320611,3.847328244274809,-2.351145038167939,6427,0,-6,141.21826171875,-2.674315733768188,-0.007884,False,,False,,,,,30
128.09,2.3162894740000866,-0.953125,0.277587890625,-0.03955078125,-4.67175572519084,3.541984732824427,-2.229007633587786,6425,-1,-4,141.17431640625,-2.7201413179889076,-0.005256,False,,False,,,,,30
128.09,2.3182861480001975,-0.953125,0.277587890625,-0.03955078125,-4.67175572519084,3.541984732824427,-2.229007633587786,6425,-1,-4,141.17431640625,-2.7201413179889076,-0.005256,False,,False,,,,,30
128.09,2.320288247999997,-0.953125,0.277587890625,-0.03955078125,-4.67175572519084,3.541984732824427,-2.229007633587786,6425,-1,-4,141.17431640625,-2.7201413179889076,-0.005256,False,,False,,,,,30
128.095,2.3222897180000928,-0.9462890625,0.279052734375,-0.038818359375,-4.366412213740458,2.931297709923664,-2.0763358778625953,6425,0,-4,141.17431640625,-2.7509308993289965,-0.005256,False,,False,,,,,30
128.095,2.3242919100000563,-0.9462890625,0.279052734375,-0.038818359375,-4.366412213740458,2.931297709923664,-2.0763358778625953,6425,0,-4,141.17431640625,-2.7509308993289965,-0.005256,False,,False,,,,,30
128.1,2.3262926580000567,-0.947998046875,0.27880859375,-0.036376953125,-4.488549618320611,1.9236641221374045,-2.015267175572519,6424,-4,3,141.15234375,-2.7846021673137376,0.003942,False,,False,,,,,30
128.1,2.328294184000015,-0.947998046875,0.27880859375,-0.036376953125,-4.488549618320611,1.9236641221374045,-2.015267175572519,6424,-4,3,141.15234375,-2.7846021673137376,0.003942,False,,False,,,,,30
128.1,2.330295746000047,-0.947998046875,0.27880859375,-0.036376953125,-4.488549618320611,1.9236641221374045,-2.015267175572519,6424,-4,3,141.15234375,-2.7846021673137376,0.003942,False,,False,,,,,30
128.105,2.332296902000053,-0.946533203125,0.280517578125,-0.038818359375,-4.366412213740458,1.5572519083969465,-2.045801526717557,6425,-6,-6,141.17431640625,-2.7883669588568414,-0.007884,False,,False,,,,,30
128.105,2.3342991500001062,-0.946533203125,0.280517578125,-0.038818359375,-4.366412213740458,1.5572519083969465,-2.045801526717557,6425,-6,-6,141.17431640625,-2.7883669588568414,-0.007884,False,,False,,,,,30
128.11,2.3362989900001594,-0.947265625,0.2763671875,-0.04541015625,-4.396946564885496,1.3740458015267174,-1.83206106870229,6423,-6,-5,141.13037109375,-2.767040057565348,-0.0065699999999999995,False,,False,,,,,30
128.11,2.3383006450001176,-0.947265625,0.2763671875,-0.04541015625,-4.396946564885496,1.3740458015267174,-1.83206106870229,6423,-6,-5,141.13037109375,-2.767040057565348,-0.0065699999999999995,False,,False,,,,,30
128.11,2.3403020230000493,-0.947265625,0.2763671875,-0.04541015625,-4.396946564885496,1.3740458015267174,-1.83206106870229,6423,-6,-5,141.13037109375,-2.767040057565348,-0.0065699999999999995,False,,False,,,,,30
128.115,2.342303493000145,-0.947998046875,0.279052734375,-0.04833984375,-4.305343511450381,1.2213740458015268,-1.8625954198473282,6423,-2,-3,141.13037109375,-2.756846993600141,-0.003942,False,,False,,,,,30
128.115,2.344306055000061,-0.947998046875,0.279052734375,-0.04833984375,-4.305343511450381,1.2213740458015268,-1.8625954198473282,6423,-2,-3,141.13037109375,-2.756846993600141,-0.003942,False,,False,,,,,30
128.12,2.3463073960001566,-0.95263671875,0.2822265625,-0.053466796875,-4.183206106870228,1.1603053435114503,-1.7709923664122136,6423,0,-2,141.13037109375,-2.7402070454832086,-0.002628,False,,False,,,,,30
128.12,2.3483084030001464,-0.95263671875,0.2822265625,-0.053466796875,-4.183206106870228,1.1603053435114503,-1.7709923664122136,6423,0,-2,141.13037109375,-2.7402070454832086,-0.002628,False,,False,,,,,30
128.12,2.350310188000094,-0.95263671875,0.2822265625,-0.053466796875,-4.183206106870228,1.1603053435114503,-1.7709923664122136,6423,0,-2,141.13037109375,-2.7402070454832086,-0.002628,False,,False,,,,,30
128.125,2.352311177000047,-0.945556640625,0.28515625,-0.053955078125,-4.427480916030534,1.0381679389312977,-1.1908396946564885,6422,-5,0,141.1083984375,-2.7024953500219615,0.0,False,,False,,,,,30
128.125,2.3543142020000687,-0.945556640625,0.28515625,-0.053955078125,-4.427480916030534,1.0381679389312977,-1.1908396946564885,6422,-5,0,141.1083984375,-2.7024953500219615,0.0,False,,False,,,,,30
128.13,2.3563142090001747,-0.941162109375,0.28759765625,-0.052001953125,-5.221374045801526,1.129770992366412,-0.8244274809160305,6421,-6,2,141.08642578125,-2.679520278515377,0.002628,False,,False,,,,,30
128.13,2.3583183460000328,-0.941162109375,0.28759765625,-0.052001953125,-5.221374045801526,1.129770992366412,-0.8244274809160305,6421,-6,2,141.08642578125,-2.679520278515377,0.002628,False,,False,,,,,30
128.13,2.3607967210000425,-0.941162109375,0.28759765625,-0.052001953125,-5.221374045801526,1.129770992366412,-0.8244274809160305,6421,-6,2,141.08642578125,-2.679520278515377,0.002628,False,,False,,,,,30
128.135,2.36279608000018,-0.937255859375,0.28857421875,-0.05078125,-5.49618320610687,1.0687022900763359,-0.12213740458015267,6421,-5,-1,141.08642578125,-2.6692152717522153,-0.001314,False,,False,,,,,30
128.135,2.364795420000064,-0.937255859375,0.28857421875,-0.05078125,-5.49618320610687,1.0687022900763359,-0.12213740458015267,6421,-5,-1,141.08642578125,-2.6692152717522153,-0.001314,False,,False,,,,,30
128.14000000000001,2.3667952050000167,-0.941650390625,0.281005859375,-0.051513671875,-4.091603053435114,0.9465648854961831,-0.183206106870229,6422,-1,-3,141.1083984375,-2.6219199187378366,-0.003942,False,,False,,,,,30
128.14000000000001,2.3687961750001705,-0.941650390625,0.281005859375,-0.051513671875,-4.091603053435114,0.9465648854961831,-0.183206106870229,6422,-1,-3,141.1083984375,-2.6219199187378366,-0.003942,False,,False,,,,,30
128.14000000000001,2.3707979050000176,-0.941650390625,0.281005859375,-0.051513671875,-4.091603053435114,0.9465648854961831,-0.183206106870229,6422,-1,-3,141.1083984375,-2.6219199187378366,-0.003942,False,,False,,,,,30
128.145,2.3727989120000075,-0.9482421875,0.27587890625,-0.049072265625,-3.450381679389313,1.129770992366412,-0.030534351145038167,6421,1,-1,141.08642578125,-2.5284264887965238,-0.001314,False,,False,,,,,30
128.145,2.3748015860001033,-0.9482421875,0.27587890625,-0.049072265625,-3.450381679389313,1.129770992366412,-0.030534351145038167,6421,1,-1,141.08642578125,-2.5284264887965238,-0.001314,False,,False,,,,,30
128.15,2.3768018700000084,-0.9453125,0.268310546875,-0.0458984375,-4.0,0.8244274809160305,0.030534351145038167,6422,0,-4,141.1083984375,-2.413526882831436,-0.005256,False,,False,,,,,30
128.15,2.378803044000051,-0.9453125,0.268310546875,-0.0458984375,-4.0,0.8244274809160305,0.030534351145038167,6422,0,-4,141.1083984375,-2.413526882831436,-0.005256,False,,False,,,,,30
128.15,2.380803811000078,-0.9453125,0.268310546875,-0.0458984375,-4.0,0.8244274809160305,0.030534351145038167,6422,0,-4,141.1083984375,-2.413526882831436,-0.005256,False,,False,,,,,30
128.155,2.3828057250000256,-0.944091796875,0.268798828125,-0.0478515625,-4.67175572519084,1.129770992366412,0.0916030534351145,6422,-1,0,141.1083984375,-2.266455345596666,0.0,False,,False,,,,,30
128.155,2.3848088060001373,-0.944091796875,0.268798828125,-0.0478515625,-4.67175572519084,1.129770992366412,0.0916030534351145,6422,-1,0,141.1083984375,-2.266455345596666,0.0,False,,False,,,,,30
128.16,2.3868123500001275,-0.95263671875,0.265869140625,-0.04638671875,-3.3587786259541983,0.9465648854961831,0.183206106870229,6420,-4,6,141.064453125,-2.1264118280783806,0.007884,False,,False,,,,,30
128.16,2.3888097650001328,-0.95263671875,0.265869140625,-0.04638671875,-3.3587786259541983,0.9465648854961831,0.183206106870229,6420,-4,6,141.064453125,-2.1264118280783806,0.007884,False,,False,,,,,30
128.16,2.3908113460001914,-0.95263671875,0.265869140625,-0.04638671875,-3.3587786259541983,0.9465648854961831,0.183206106870229,6420,-4,6,141.064453125,-2.1264118280783806,0.007884,False,,False,,,,,30
128.165,2.3928138720000334,-0.951416015625,0.2685546875,-0.051513671875,-4.244274809160305,0.9770992366412213,0.6106870229007634,6421,3,6,141.08642578125,-2.026111996975959,0.007884,False,,False,,,,,30
128.165,2.394816120000087,-0.951416015625,0.2685546875,-0.051513671875,-4.244274809160305,0.9770992366412213,0.6106870229007634,6421,3,6,141.08642578125,-2.026111996975959,0.007884,False,,False,,,,,30
128.17000000000002,2.3968156450000606,-0.949462890625,0.281005859375,-0.04150390625,-6.5038167938931295,1.2519083969465647,1.9541984732824427,6420,1,6,141.064453125,-1.9287066818812668,0.007884,False,,False,,,,,30
128.17000000000002,2.3988171340001827,-0.949462890625,0.281005859375,-0.04150390625,-6.5038167938931295,1.2519083969465647,1.9541984732824427,6420,1,6,141.064453125,-1.9287066818812668,0.007884,False,,False,,,,,30
128.17000000000002,2.400818271000162,-0.949462890625,0.281005859375,-0.04150390625,-6.5038167938931295,1.2519083969465647,1.9541984732824427,6420,1,6,141.064453125,-1.9287066818812668,0.007884,False,,False,,,,,30
128.175,2.40281992600012,-0.9443359375,0.270263671875,-0.04736328125,-6.595419847328244,1.129770992366412,1.7404580152671756,6419,0,0,141.04248046875,-1.851051279188875,0.0,False,,False,,,,,30
128.175,2.4048225070000626,-0.9443359375,0.270263671875,-0.04736328125,-6.595419847328244,1.129770992366412,1.7404580152671756,6419,0,0,141.04248046875,-1.851051279188875,0.0,False,,False,,,,,30
128.18,2.406822533000195,-0.9638671875,0.263671875,-0.056884765625,-2.4427480916030535,0.9465648854961831,0.4580152671755725,6420,-4,1,141.064453125,-1.7910551133195545,0.001314,False,,False,,,,,30
128.18,2.408823669000185,-0.9638671875,0.263671875,-0.056884765625,-2.4427480916030535,0.9465648854961831,0.4580152671755725,6420,-4,1,141.064453125,-1.7910551133195545,0.001314,False,,False,,,,,30
128.18,2.4108250470001167,-0.9638671875,0.263671875,-0.056884765625,-2.4427480916030535,0.9465648854961831,0.4580152671755725,6420,-4,1,141.064453125,-1.7910551133195545,0.001314,False,,False,,,,,30
128.185,2.4128277760000856,-0.9765625,0.247314453125,-0.049072265625,-2.259541984732824,0.732824427480916,0.15267175572519084,6419,-4,-3,141.04248046875,-1.714880899323535,-0.003942,False,,False,,,,,30
128.185,2.4148298019999856,-0.9765625,0.247314453125,-0.049072265625,-2.259541984732824,0.732824427480916,0.15267175572519084,6419,-4,-3,141.04248046875,-1.714880899323535,-0.003942,False,,False,,,,,30
128.19,2.4168297720000282,-0.974609375,0.239990234375,-0.045166015625,-3.5114503816793894,0.9465648854961831,-0.061068702290076333,6419,-4,1,141.04248046875,-1.6421818278485962,0.001314,False,,False,,,,,30
128.19,2.418830557000092,-0.974609375,0.239990234375,-0.045166015625,-3.5114503816793894,0.9465648854961831,-0.061068702290076333,6419,-4,1,141.04248046875,-1.6421818278485962,0.001314,False,,False,,,,,30
128.19,2.4208326380000926,-0.974609375,0.239990234375,-0.045166015625,-3.5114503816793894,0.9465648854961831,-0.061068702290076333,6419,-4,1,141.04248046875,-1.6421818278485962,0.001314,False,,False,,,,,30
128.195,2.4228343300001143,-0.9736328125,0.240966796875,-0.038818359375,-4.580152671755725,0.9465648854961831,-0.183206106870229,6418,-6,3,141.0205078125,-1.5893608460559747,0.003942,False,,False,,,,,30
128.195,2.4248366710000937,-0.9736328125,0.240966796875,-0.038818359375,-4.580152671755725,0.9465648854961831,-0.183206106870229,6418,-6,3,141.0205078125,-1.5893608460559747,0.003942,False,,False,,,,,30
128.2,2.4268366779999724,-0.962890625,0.265380859375,-0.042724609375,-4.2748091603053435,0.7022900763358778,-0.0916030534351145,6418,-5,-7,141.0205078125,-1.5539466393008459,-0.009198,False,,False,,,,,30
128.2,2.4288389810001263,-0.962890625,0.265380859375,-0.042724609375,-4.2748091603053435,0.7022900763358778,-0.0916030534351145,6418,-5,-7,141.0205078125,-1.5539466393008459,-0.009198,False,,False,,,,,30
128.2,2.430839674000026,-0.962890625,0.265380859375,-0.042724609375,-4.2748091603053435,0.7022900763358778,-0.0916030534351145,6418,-5,-7,141.0205078125,-1.5539466393008459,-0.009198,False,,False,,,,,30
128.205,2.4328410140001324,-0.96142578125,0.262939453125,-0.047607421875,-3.877862595419847,0.8549618320610687,-0.0916030534351145,6419,3,-4,141.04248046875,-1.50178691593679,-0.005256,False,,False,,,,,30
128.205,2.4348442059999797,-0.96142578125,0.262939453125,-0.047607421875,-3.877862595419847,0.8549618320610687,-0.0916030534351145,6419,3,-4,141.04248046875,-1.50178691593679,-0.005256,False,,False,,,,,30
128.21,2.436844528000165,-0.962890625,0.262939453125,-0.046875,-4.183206106870228,1.099236641221374,0.0,6418,0,-6,141.0205078125,-1.4204481843558374,-0.007884,False,,False,,,,,30
128.21,2.438845424000192,-0.962890625,0.262939453125,-0.046875,-4.183206106870228,1.099236641221374,0.0,6418,0,-6,141.0205078125,-1.4204481843558374,-0.007884,False,,False,,,,,30
128.21,2.440846932000113,-0.962890625,0.262939453125,-0.046875,-4.183206106870228,1.099236641221374,0.0,6418,0,-6,141.0205078125,-1.4204481843558374,-0.007884,False,,False,,,,,30
128.215,2.442848179000066,-0.96142578125,0.26220703125,-0.048828125,-4.0,0.9465648854961831,0.061068702290076333,6418,-1,-4,141.0205078125,-1.3476908396060492,-0.005256,False,,False,,,,,30
128.215,2.4448494640000717,-0.96142578125,0.26220703125,-0.048828125,-4.0,0.9465648854961831,0.061068702290076333,6418,-1,-4,141.0205078125,-1.3476908396060492,-0.005256,False,,False,,,,,30
128.22,2.4468512120001833,-0.955810546875,0.26220703125,-0.046630859375,-3.877862595419847,0.9465648854961831,0.15267175572519084,6418,-1,-6,141.0205078125,-1.283171690175774,-0.007884,False,,False,,,,,30
128.22,2.4488519970000198,-0.955810546875,0.26220703125,-0.046630859375,-3.877862595419847,0.9465648854961831,0.15267175572519084,6418,-1,-6,141.0205078125,-1.283171690175774,-0.007884,False,,False,,,,,30
128.22,2.450853208000126,-0.955810546875,0.26220703125,-0.046630859375,-3.877862595419847,0.9465648854961831,0.15267175572519084,6418,-1,-6,141.0205078125,-1.283171690175774,-0.007884,False,,False,,,,,30
128.225,2.452854752000121,-0.95654296875,0.262451171875,-0.046875,-3.7251908396946565,0.7938931297709924,0.12213740458015267,6418,0,-3,141.0205078125,-1.2105684853549445,-0.003942,False,,False,,,,,30
128.225,2.454856055000164,-0.95654296875,0.262451171875,-0.046875,-3.7251908396946565,0.7938931297709924,0.12213740458015267,6418,0,-3,141.0205078125,-1.2105684853549445,-0.003942,False,,False,,,,,30
128.23,2.4568573400001696,-0.956787109375,0.260498046875,-0.047607421875,-3.969465648854962,0.7022900763358778,0.42748091603053434,6418,0,-1,141.0205078125,-1.1322492404327027,-0.001314,False,,False,,,,,30
128.23,2.45885808800017,-0.956787109375,0.260498046875,-0.047607421875,-3.969465648854962,0.7022900763358778,0.42748091603053434,6418,0,-1,141.0205078125,-1.1322492404327027,-0.001314,False,,False,,,,,30
128.23,2.460859818000017,-0.956787109375,0.260498046875,-0.047607421875,-3.969465648854962,0.7022900763358778,0.42748091603053434,6418,0,-1,141.0205078125,-1.1322492404327027,-0.001314,False,,False,,,,,30
128.235,2.4628612690000864,-0.955322265625,0.26123046875,-0.04736328125,-3.7251908396946565,0.8244274809160305,0.5801526717557252,6418,0,-6,141.0205078125,-1.0502792210661067,-0.007884,False,,False,,,,,30
128.235,2.4648649060000025,-0.955322265625,0.26123046875,-0.04736328125,-3.7251908396946565,0.8244274809160305,0.5801526717557252,6418,0,-6,141.0205078125,-1.0502792210661067,-0.007884,False,,False,,,,,30
128.24,2.466864487000066,-0.95654296875,0.26123046875,-0.04443359375,-3.3587786259541983,0.5190839694656488,0.549618320610687,6417,-1,-6,140.99853515625,-0.9823559101324124,-0.007884,False,,False,,,,,30
128.24,2.46886527200013,-0.95654296875,0.26123046875,-0.04443359375,-3.3587786259541983,0.5190839694656488,0.549618320610687,6417,-1,-6,140.99853515625,-0.9823559101324124,-0.007884,False,,False,,,,,30
128.24,2.470866983000178,-0.95654296875,0.26123046875,-0.04443359375,-3.3587786259541983,0.5190839694656488,0.549618320610687,6417,-1,-6,140.99853515625,-0.9823559101324124,-0.007884,False,,False,,,,,30
128.245,2.4728687490000993,-0.955322265625,0.260986328125,-0.0458984375,-3.297709923664122,0.366412213740458,0.5801526717557252,6415,-5,4,140.95458984375,-0.974923009942599,0.005256,False,,False,,,,,30
128.245,2.4748717190000207,-0.955322265625,0.260986328125,-0.0458984375,-3.297709923664122,0.366412213740458,0.5801526717557252,6415,-5,4,140.95458984375,-0.974923009942599,0.005256,False,,False,,,,,30
128.25,2.4768713000000844,-0.957763671875,0.264404296875,-0.044677734375,-3.145038167938931,0.732824427480916,0.9465648854961831,6417,-2,-2,140.99853515625,-1.0023236574984664,-0.002628,False,,False,,,,,30
128.25,2.478874085000143,-0.957763671875,0.264404296875,-0.044677734375,-3.145038167938931,0.732824427480916,0.9465648854961831,6417,-2,-2,140.99853515625,-1.0023236574984664,-0.002628,False,,False,,,,,30
128.25,2.480878407000091,-0.957763671875,0.264404296875,-0.044677734375,-3.145038167938931,0.732824427480916,0.9465648854961831,6417,-2,-2,140.99853515625,-1.0023236574984664,-0.002628,False,,False,,,,,30
128.255,2.482875914000033,-0.960205078125,0.26220703125,-0.042236328125,-2.931297709923664,0.5801526717557252,0.8854961832061068,6416,5,-6,140.9765625,-0.9948269960205047,-0.007884,False,,False,,,,,30
128.255,2.484877496000081,-0.960205078125,0.26220703125,-0.042236328125,-2.931297709923664,0.5801526717557252,0.8854961832061068,6416,5,-6,140.9765625,-0.9948269960205047,-0.007884,False,,False,,,,,30
128.26,2.486879225000166,-0.96337890625,0.263671875,-0.04345703125,-2.931297709923664,0.8549618320610687,1.2213740458015268,6416,0,-4,140.9765625,-0.9741391424173194,-0.005256,False,,False,,,,,30
128.26,2.4888800840001295,-0.96337890625,0.263671875,-0.04345703125,-2.931297709923664,0.8549618320610687,1.2213740458015268,6416,0,-4,140.9765625,-0.9741391424173194,-0.005256,False,,False,,,,,30
128.26,2.49088096100013,-0.96337890625,0.263671875,-0.04345703125,-2.931297709923664,0.8549618320610687,1.2213740458015268,6416,0,-4,140.9765625,-0.9741391424173194,-0.005256,False,,False,,,,,30
128.26500000000001,2.492882876000067,-0.960205078125,0.262451171875,-0.045166015625,-2.8091603053435112,0.8854961832061068,1.2519083969465647,6416,1,-8,140.9765625,-0.9586231566715324,-0.010512,False,,False,,,,,30
128.26500000000001,2.4948857720000888,-0.960205078125,0.262451171875,-0.045166015625,-2.8091603053435112,0.8854961832061068,1.2519083969465647,6416,1,-8,140.9765625,-0.9586231566715324,-0.010512,False,,False,,,,,30
128.27,2.496885797999994,-0.9609375,0.25927734375,-0.042724609375,-2.778625954198473,0.9465648854961831,1.4045801526717556,6415,-4,-6,140.95458984375,-0.9476617396337259,-0.007884,False,,False,,,,,30
128.27,2.4988865820000683,-0.9609375,0.25927734375,-0.042724609375,-2.778625954198473,0.9465648854961831,1.4045801526717556,6415,-4,-6,140.95458984375,-0.9476617396337259,-0.007884,False,,False,,,,,30
128.27,2.5008875900000476,-0.9609375,0.25927734375,-0.042724609375,-2.778625954198473,0.9465648854961831,1.4045801526717556,6415,-4,-6,140.95458984375,-0.9476617396337259,-0.007884,False,,False,,,,,30
128.275,2.5028886150000744,-0.961669921875,0.259765625,-0.041259765625,-2.595419847328244,1.1603053435114503,1.2519083969465647,6414,-3,0,140.9326171875,-0.97250330418331,0.0,False,,False,,,,,30
128.275,2.504892363000181,-0.961669921875,0.259765625,-0.041259765625,-2.595419847328244,1.1603053435114503,1.2519083969465647,6414,-3,0,140.9326171875,-0.97250330418331,0.0,False,,False,,,,,30
128.28,2.506892185000197,-0.95703125,0.26025390625,-0.04443359375,-2.595419847328244,1.4045801526717556,1.465648854961832,6414,0,-3,140.9326171875,-1.0269585950375901,-0.003942,False,,False,,,,,30
128.28,2.508893100000023,-0.95703125,0.26025390625,-0.04443359375,-2.595419847328244,1.4045801526717556,1.465648854961832,6414,0,-3,140.9326171875,-1.0269585950375901,-0.003942,False,,False,,,,,30
128.28,2.510894607000182,-0.95703125,0.26025390625,-0.04443359375,-2.595419847328244,1.4045801526717556,1.465648854961832,6414,0,-3,140.9326171875,-1.0269585950375901,-0.003942,False,,False,,,,,30
128.285,2.5128961510001773,-0.95947265625,0.2587890625,-0.04638671875,-2.381679389312977,1.4961832061068703,1.5877862595419847,6413,0,-2,140.91064453125,-1.0895014827034557,-0.002628,False,,False,,,,,30
128.285,2.514899825000157,-0.95947265625,0.2587890625,-0.04638671875,-2.381679389312977,1.4961832061068703,1.5877862595419847,6413,0,-2,140.91064453125,-1.0895014827034557,-0.002628,False,,False,,,,,30
128.29,2.5168987210001887,-0.963623046875,0.256591796875,-0.043212890625,-2.5343511450381677,1.7404580152671756,1.618320610687023,6411,-5,-2,140.86669921875,-1.18974030153197,-0.002628,False,,False,,,,,30
128.29,2.518900765000126,-0.963623046875,0.256591796875,-0.043212890625,-2.5343511450381677,1.7404580152671756,1.618320610687023,6411,-5,-2,140.86669921875,-1.18974030153197,-0.002628,False,,False,,,,,30
128.29,2.520901624000089,-0.963623046875,0.256591796875,-0.043212890625,-2.5343511450381677,1.7404580152671756,1.618320610687023,6411,-5,-2,140.86669921875,-1.18974030153197,-0.002628,False,,False,,,,,30
128.29500000000002,2.522903149000058,-0.958984375,0.255859375,-0.044921875,-2.229007633587786,1.7709923664122136,1.5877862595419847,6410,-13,-1,140.8447265625,-1.3519165151376868,-0.001314,False,,False,,,,,30
128.29500000000002,2.5249047680001695,-0.958984375,0.255859375,-0.044921875,-2.229007633587786,1.7709923664122136,1.5877862595419847,6410,-13,-1,140.8447265625,-1.3519165151376868,-0.001314,False,,False,,,,,30
128.3,2.5269058860001223,-0.96044921875,0.255126953125,-0.044189453125,-2.4732824427480917,1.8625954198473282,1.5877862595419847,6409,-10,-4,140.82275390625,-1.5476805842025647,-0.005256,False,,False,,,,,30
128.3,2.5289075230000435,-0.96044921875,0.255126953125,-0.044189453125,-2.4732824427480917,1.8625954198473282,1.5877862595419847,6409,-10,-4,140.82275390625,-1.5476805842025647,-0.005256,False,,False,,,,,30
128.3,2.530909011000176,-0.96044921875,0.255126953125,-0.044189453125,-2.4732824427480917,1.8625954198473282,1.5877862595419847,6409,-10,-4,140.82275390625,-1.5476805842025647,-0.005256,False,,False,,,,,30
128.305,2.532911666000018,-0.95654296875,0.255126953125,-0.043212890625,-2.5038167938931295,1.984732824427481,1.7404580152671756,6408,-2,-2,140.80078125,-1.752812216527188,-0.002628,False,,False,,,,,30
128.305,2.5349120990001666,-0.95654296875,0.255126953125,-0.043212890625,-2.5038167938931295,1.984732824427481,1.7404580152671756,6408,-2,-2,140.80078125,-1.752812216527188,-0.002628,False,,False,,,,,30
128.31,2.536912884000003,-0.9560546875,0.257568359375,-0.045166015625,-2.564885496183206,1.8931297709923662,1.6793893129770991,6406,-3,1,140.7568359375,-1.9787301077611874,0.001314,False,,False,,,,,30
128.31,2.53891504000012,-0.9560546875,0.257568359375,-0.045166015625,-2.564885496183206,1.8931297709923662,1.6793893129770991,6406,-3,1,140.7568359375,-1.9787301077611874,0.001314,False,,False,,,,,30
128.31,2.5409166580000146,-0.9560546875,0.257568359375,-0.045166015625,-2.564885496183206,1.8931297709923662,1.6793893129770991,6406,-3,1,140.7568359375,-1.9787301077611874,0.001314,False,,False,,,,,30
128.315,2.5429179430000204,-0.958251953125,0.26171875,-0.046142578125,-2.748091603053435,2.015267175572519,1.648854961832061,6403,-11,-3,140.69091796875,-2.2665238407348256,-0.003942,False,,False,,,,,30
128.315,2.544919024000137,-0.958251953125,0.26171875,-0.046142578125,-2.748091603053435,2.015267175572519,1.648854961832061,6403,-11,-3,140.69091796875,-2.2665238407348256,-0.003942,False,,False,,,,,30
128.32,2.5469194010001956,-0.954833984375,0.269287109375,-0.04736328125,-2.8702290076335877,1.8015267175572518,2.229007633587786,6400,-17,-7,140.625,-2.649696481882367,-0.009198,False,,False,,,,,30
128.32,2.548921464000159,-0.954833984375,0.269287109375,-0.04736328125,-2.8702290076335877,1.8015267175572518,2.229007633587786,6400,-17,-7,140.625,-2.649696481882367,-0.009198,False,,False,,,,,30
128.32,2.550922471000149,-0.954833984375,0.269287109375,-0.04736328125,-2.8702290076335877,1.8015267175572518,2.229007633587786,6400,-17,-7,140.625,-2.649696481882367,-0.009198,False,,False,,,,,30
128.325,2.5529234970001653,-0.951904296875,0.271728515625,-0.049072265625,-3.3893129770992365,1.9236641221374045,2.229007633587786,6394,-31,-2,140.4931640625,-3.170830048163714,-0.002628,False,,False,,,,,30
128.325,2.554927060000182,-0.951904296875,0.271728515625,-0.049072265625,-3.3893129770992365,1.9236641221374045,2.229007633587786,6394,-31,-2,140.4931640625,-3.170830048163714,-0.002628,False,,False,,,,,30
128.33,2.5569308070000716,-0.9443359375,0.280517578125,-0.04541015625,-4.244274809160305,1.83206106870229,2.8702290076335877,6386,-44,1,140.3173828125,-3.9272371911007506,0.001314,False,,False,,,,,30
128.33,2.558928426000193,-0.9443359375,0.280517578125,-0.04541015625,-4.244274809160305,1.83206106870229,2.8702290076335877,6386,-44,1,140.3173828125,-3.9272371911007506,0.001314,False,,False,,,,,30
128.33,2.560929822000162,-0.9443359375,0.280517578125,-0.04541015625,-4.244274809160305,1.83206106870229,2.8702290076335877,6386,-44,1,140.3173828125,-3.9272371911007506,0.001314,False,,False,,,,,30
128.335,2.5629310330000408,-0.93505859375,0.2958984375,-0.044921875,-5.435114503816794,2.16793893129771,4.091603053435114,6369,-81,1,139.94384765625,-5.124302673887896,0.001314,False,,False,,,,,30
128.335,2.564932651000163,-0.93505859375,0.2958984375,-0.044921875,-5.435114503816794,2.16793893129771,4.091603053435114,6369,-81,1,139.94384765625,-5.124302673887896,0.001314,False,,False,,,,,30
128.34,2.566933899000105,-0.925537109375,0.311279296875,-0.042236328125,-6.564885496183206,1.984732824427481,5.312977099236641,6348,-93,0,139.482421875,-7.0549118958245165,0.0,False,,False,,,,,30
128.34,2.568934906000095,-0.925537109375,0.311279296875,-0.042236328125,-6.564885496183206,1.984732824427481,5.312977099236641,6348,-93,0,139.482421875,-7.0549118958245165,0.0,False,,False,,,,,30
128.34,2.570941246000075,-0.925537109375,0.311279296875,-0.042236328125,-6.564885496183206,1.984732824427481,5.312977099236641,6348,-93,0,139.482421875,-7.0549118958245165,0.0,False,,False,,,,,30
128.345,2.5729384200001277,-0.944091796875,0.299560546875,-0.0546875,-2.564885496183206,1.8625954198473282,4.122137404580153,6331,-72,-7,139.10888671875,-9.778564973378886,-0.009198,False,,False,,,,,30
128.345,2.574941279000086,-0.944091796875,0.299560546875,-0.0546875,-2.564885496183206,1.8625954198473282,4.122137404580153,6331,-72,-7,139.10888671875,-9.778564973378886,-0.009198,False,,False,,,,,30
128.35,2.576941304999991,-0.947265625,0.2890625,-0.0625,-1.0076335877862594,2.0763358778625953,4.061068702290076,6315,-71,-3,138.75732421875,-13.04710503650696,-0.003942,False,,False,,,,,30
128.35,2.57894288600005,-0.947265625,0.2890625,-0.0625,-1.0076335877862594,2.0763358778625953,4.061068702290076,6315,-71,-3,138.75732421875,-13.04710503650696,-0.003942,False,,False,,,,,30
128.35,2.580944337000119,-0.947265625,0.2890625,-0.0625,-1.0076335877862594,2.0763358778625953,4.061068702290076,6315,-71,-3,138.75732421875,-13.04710503650696,-0.003942,False,,False,,,,,30
128.355,2.5829459369999768,-0.941162109375,0.2919921875,-0.053955078125,-3.6030534351145036,2.1068702290076335,5.343511450381679,6291,-107,-5,138.22998046875,-16.756295226645634,-0.0065699999999999995,False,,False,,,,,30
128.355,2.584947740000189,-0.941162109375,0.2919921875,-0.053955078125,-3.6030534351145036,2.1068702290076335,5.343511450381679,6291,-107,-5,138.22998046875,-16.756295226645634,-0.0065699999999999995,False,,False,,,,,30
128.36,2.586948098999983,-0.947998046875,0.302978515625,-0.036376953125,-5.557251908396946,1.9541984732824427,5.801526717557252,6263,-117,-4,137.61474609375,-21.083051854854162,-0.005256,False,,False,,,,,30
128.36,2.5889501070000733,-0.947998046875,0.302978515625,-0.036376953125,-5.557251908396946,1.9541984732824427,5.801526717557252,6263,-117,-4,137.61474609375,-21.083051854854162,-0.005256,False,,False,,,,,30
128.36,2.5909504650001054,-0.947998046875,0.302978515625,-0.036376953125,-5.557251908396946,1.9541984732824427,5.801526717557252,6263,-117,-4,137.61474609375,-21.083051854854162,-0.005256,False,,False,,,,,30
128.365,2.592951436000021,-0.939697265625,0.32470703125,-0.05029296875,-4.549618320610687,2.381679389312977,6.717557251908397,6235,-133,-2,136.99951171875,-26.11879271696252,-0.002628,False,,False,,,,,30
128.365,2.5949533500001962,-0.939697265625,0.32470703125,-0.05029296875,-4.549618320610687,2.381679389312977,6.717557251908397,6235,-133,-2,136.99951171875,-26.11879271696252,-0.002628,False,,False,,,,,30
128.37,2.5969544870001755,-0.927978515625,0.319580078125,-0.055419921875,-4.793893129770992,1.5572519083969465,6.442748091603053,6202,-142,2,136.2744140625,-31.818371105701317,0.002628,False,,False,,,,,30
128.37,2.598956050000197,-0.927978515625,0.319580078125,-0.055419921875,-4.793893129770992,1.5572519083969465,6.442748091603053,6202,-142,2,136.2744140625,-31.818371105701317,0.002628,False,,False,,,,,30
128.37,2.600956779000171,-0.927978515625,0.319580078125,-0.055419921875,-4.793893129770992,1.5572519083969465,6.442748091603053,6202,-142,2,136.2744140625,-31.818371105701317,0.002628,False,,False,,,,,30
128.375,2.602958712000145,-0.957275390625,0.31298828125,-0.044921875,-2.748091603053435,1.984732824427481,6.564885496183206,6169,-143,1,135.54931640625,-38.150289786328464,0.001314,False,,False,,,,,30
128.375,2.60496033000004,-0.957275390625,0.31298828125,-0.044921875,-2.748091603053435,1.984732824427481,6.564885496183206,6169,-143,1,135.54931640625,-38.150289786328464,0.001314,False,,False,,,,,30
128.38,2.6069613000001937,-0.945556640625,0.310791015625,-0.043701171875,-4.641221374045801,1.6793893129770991,7.419847328244274,6132,-167,0,134.736328125,-45.06310371867002,0.0,False,,False,,,,,30
128.38,2.6089622150000196,-0.945556640625,0.310791015625,-0.043701171875,-4.641221374045801,1.6793893129770991,7.419847328244274,6132,-167,0,134.736328125,-45.06310371867002,0.0,False,,False,,,,,30
128.38,2.61096448100011,-0.945556640625,0.310791015625,-0.043701171875,-4.641221374045801,1.6793893129770991,7.419847328244274,6132,-167,0,134.736328125,-45.06310371867002,0.0,False,,False,,,,,30
128.385,2.6129662480000206,-0.945556640625,0.33447265625,-0.042724609375,-4.824427480916031,2.778625954198473,8.702290076335878,6091,-183,-3,133.83544921875,-52.553075566448015,-0.003942,False,,False,,,,,30
128.385,2.6149673840000105,-0.945556640625,0.33447265625,-0.042724609375,-4.824427480916031,2.778625954198473,8.702290076335878,6091,-183,-3,133.83544921875,-52.553075566448015,-0.003942,False,,False,,,,,30
128.39000000000001,2.616969057999995,-0.93212890625,0.308349609375,-0.04736328125,-3.2671755725190836,1.3435114503816794,7.236641221374046,6051,-164,6,132.95654296875,-60.5927997790933,0.007884,False,,False,,,,,30
128.39000000000001,2.6189705840001807,-0.93212890625,0.308349609375,-0.04736328125,-3.2671755725190836,1.3435114503816794,7.236641221374046,6051,-164,6,132.95654296875,-60.5927997790933,0.007884,False,,False,,,,,30
128.39000000000001,2.620972275999975,-0.93212890625,0.308349609375,-0.04736328125,-3.2671755725190836,1.3435114503816794,7.236641221374046,6051,-164,6,132.95654296875,-60.5927997790933,0.007884,False,,False,,,,,30
128.395,2.6229730980001023,-0.9619140625,0.326171875,-0.04150390625,-1.5267175572519083,2.351145038167939,8.0,6011,-173,5,132.07763671875,-69.00812848726204,0.0065699999999999995,False,,False,,,,,30
128.395,2.624974605000034,-0.9619140625,0.326171875,-0.04150390625,-1.5267175572519083,2.351145038167939,8.0,6011,-173,5,132.07763671875,-69.00812848726204,0.0065699999999999995,False,,False,,,,,30
128.4,2.626975983000193,-0.96044921875,0.31396484375,-0.03955078125,-2.0763358778625953,2.015267175572519,8.183206106870228,5973,-172,3,131.24267578125,-77.56824904773349,0.003942,False,,False,,,,,30
128.4,2.628978267000093,-0.96044921875,0.31396484375,-0.03955078125,-2.0763358778625953,2.015267175572519,8.183206106870228,5973,-172,3,131.24267578125,-77.56824904773349,0.003942,False,,False,,,,,30
128.4,2.630978756000104,-0.96044921875,0.31396484375,-0.03955078125,-2.0763358778625953,2.015267175572519,8.183206106870228,5973,-172,3,131.24267578125,-77.56824904773349,0.003942,False,,False,,,,,30
128.405,2.6329808190000676,-0.93701171875,0.29296875,-0.044921875,-2.687022900763359,0.4580152671755725,6.625954198473282,5933,-171,6,130.36376953125,-86.09374738342024,0.007884,False,,False,,,,,30
128.405,2.634981400000015,-0.93701171875,0.29296875,-0.044921875,-2.687022900763359,0.4580152671755725,6.625954198473282,5933,-171,6,130.36376953125,-86.09374738342024,0.007884,False,,False,,,,,30
128.41,2.6369831660001637,-0.966796875,0.3193359375,-0.0380859375,-0.549618320610687,1.4351145038167938,7.206106870229007,5894,-170,5,129.5068359375,-94.48266966147483,0.0065699999999999995,False,,False,,,,,30
128.41,2.638984803000085,-0.966796875,0.3193359375,-0.0380859375,-0.549618320610687,1.4351145038167938,7.206106870229007,5894,-170,5,129.5068359375,-94.48266966147483,0.0065699999999999995,False,,False,,,,,30
128.41,2.640985532000059,-0.966796875,0.3193359375,-0.0380859375,-0.549618320610687,1.4351145038167938,7.206106870229007,5894,-170,5,129.5068359375,-94.48266966147483,0.0065699999999999995,False,,False,,,,,30
128.415,2.642987058000017,-0.947998046875,0.293212890625,-0.056640625,0.9770992366412213,-0.061068702290076333,5.251908396946565,5863,-134,6,128.82568359375,-102.50840021034115,0.007884,False,,False,,,,,30
128.415,2.644987786999991,-0.947998046875,0.293212890625,-0.056640625,0.9770992366412213,-0.061068702290076333,5.251908396946565,5863,-134,6,128.82568359375,-102.50840021034115,0.007884,False,,False,,,,,30
128.42000000000002,2.646990183000071,-0.94482421875,0.29931640625,-0.060791015625,-0.33587786259541985,0.2748091603053435,5.893129770992366,5827,-160,2,128.03466796875,-109.92281963661036,0.002628,False,,False,,,,,30
128.42000000000002,2.64899137600014,-0.94482421875,0.29931640625,-0.060791015625,-0.33587786259541985,0.2748091603053435,5.893129770992366,5827,-160,2,128.03466796875,-109.92281963661036,0.002628,False,,False,,,,,30
128.42000000000002,2.6509946240000772,-0.94482421875,0.29931640625,-0.060791015625,-0.33587786259541985,0.2748091603053435,5.893129770992366,5827,-160,2,128.03466796875,-109.92281963661036,0.002628,False,,False,,,,,30
128.425,2.652993705000199,-0.97705078125,0.31201171875,-0.04052734375,0.366412213740458,0.061068702290076333,6.076335877862595,5793,-155,5,127.28759765625,-116.71804994470911,0.0065699999999999995,False,,False,,,,,30
128.425,2.6549958230000357,-0.97705078125,0.31201171875,-0.04052734375,0.366412213740458,0.061068702290076333,6.076335877862595,5793,-155,5,127.28759765625,-116.71804994470911,0.0065699999999999995,False,,False,,,,,30
128.43,2.6569971820001683,-0.947021484375,0.3251953125,-0.060546875,-0.5801526717557252,0.5801526717557252,6.8396946564885495,5754,-171,1,126.4306640625,-122.99195940000482,0.001314,False,,False,,,,,30
128.43,2.658999096000116,-0.947021484375,0.3251953125,-0.060546875,-0.5801526717557252,0.5801526717557252,6.8396946564885495,5754,-171,1,126.4306640625,-122.99195940000482,0.001314,False,,False,,,,,30
128.43,2.6609998440001164,-0.947021484375,0.3251953125,-0.060546875,-0.5801526717557252,0.5801526717557252,6.8396946564885495,5754,-171,1,126.4306640625,-122.99195940000482,0.001314,False,,False,,,,,30
128.435,2.6630014260001644,-0.9609375,0.326171875,-0.0556640625,1.0687022900763359,-0.3969465648854962,6.65648854961832,5714,-180,1,125.5517578125,-128.88178052867184,0.001314,False,,False,,,,,30
128.435,2.665003118000186,-0.9609375,0.326171875,-0.0556640625,1.0687022900763359,-0.3969465648854962,6.65648854961832,5714,-180,1,125.5517578125,-128.88178052867184,0.001314,False,,False,,,,,30
128.44,2.667004643000155,-0.943359375,0.343994140625,-0.05322265625,-1.1603053435114503,-0.061068702290076333,9.16030534351145,5666,-208,3,124.4970703125,-134.6034596215157,0.003942,False,,False,,,,,30
128.44,2.669006761999981,-0.943359375,0.343994140625,-0.05322265625,-1.1603053435114503,-0.061068702290076333,9.16030534351145,5666,-208,3,124.4970703125,-134.6034596215157,0.003942,False,,False,,,,,30
128.44,2.67100688000005,-0.943359375,0.343994140625,-0.05322265625,-1.1603053435114503,-0.061068702290076333,9.16030534351145,5666,-208,3,124.4970703125,-134.6034596215157,0.003942,False,,False,,,,,30
128.445,2.673008702000061,-0.92724609375,0.3466796875,-0.058349609375,-2.381679389312977,0.9770992366412213,9.679389312977099,5613,-241,4,123.33251953125,-140.4516279266321,0.005256,False,,False,,,,,30
128.445,2.6750101900001937,-0.92724609375,0.3466796875,-0.058349609375,-2.381679389312977,0.9770992366412213,9.679389312977099,5613,-241,4,123.33251953125,-140.4516279266321,0.005256,False,,False,,,,,30
128.45,2.677018567999994,-0.957763671875,0.369384765625,-0.042724609375,-0.366412213740458,1.0076335877862594,10.50381679389313,5558,-242,-4,122.1240234375,-146.63928171905593,-0.005256,False,,False,,,,,30
128.45,2.679012964000094,-0.957763671875,0.369384765625,-0.042724609375,-0.366412213740458,1.0076335877862594,10.50381679389313,5558,-242,-4,122.1240234375,-146.63928171905593,-0.005256,False,,False,,,,,30
128.45,2.6810147300000153,-0.957763671875,0.369384765625,-0.042724609375,-0.366412213740458,1.0076335877862594,10.50381679389313,5558,-242,-4,122.1240234375,-146.63928171905593,-0.005256,False,,False,,,,,30
128.455,2.6830154410001796,-0.911376953125,0.34619140625,-0.06591796875,0.21374045801526717,0.24427480916030533,10.748091603053435,5498,-266,-9,120.8056640625,-153.24432598320138,-0.011826,False,,False,,,,,30
128.455,2.6850177630001326,-0.911376953125,0.34619140625,-0.06591796875,0.21374045801526717,0.24427480916030533,10.748091603053435,5498,-266,-9,120.8056640625,-153.24432598320138,-0.011826,False,,False,,,,,30
128.46,2.687019233000001,-0.937744140625,0.365966796875,-0.03955078125,-0.6717557251908397,1.2213740458015268,11.786259541984732,5431,-284,-6,119.33349609375,-160.40551268411227,-0.007884,False,,False,,,,,30
128.46,2.6890201109999907,-0.937744140625,0.365966796875,-0.03955078125,-0.6717557251908397,1.2213740458015268,11.786259541984732,5431,-284,-6,119.33349609375,-160.40551268411227,-0.007884,False,,False,,,,,30
128.46,2.691021451000097,-0.937744140625,0.365966796875,-0.03955078125,-0.6717557251908397,1.2213740458015268,11.786259541984732,5431,-284,-6,119.33349609375,-160.40551268411227,-0.007884,False,,False,,,,,30
128.465,2.693023217000018,-0.923828125,0.37060546875,-0.053466796875,1.4961832061068703,0.5801526717557252,12.183206106870228,5369,-279,-2,117.97119140625,-168.1513677749037,-0.002628,False,,False,,,,,30
128.465,2.6950250760000927,-0.923828125,0.37060546875,-0.053466796875,1.4961832061068703,0.5801526717557252,12.183206106870228,5369,-279,-2,117.97119140625,-168.1513677749037,-0.002628,False,,False,,,,,30
128.47,2.6970258430001195,-0.89794921875,0.345458984375,-0.05908203125,3.0839694656488548,0.0916030534351145,12.122137404580153,5303,-287,0,116.52099609375,-176.29040002557434,0.0,False,,False,,,,,30
128.47,2.6990276650001306,-0.89794921875,0.345458984375,-0.05908203125,3.0839694656488548,0.0916030534351145,12.122137404580153,5303,-287,0,116.52099609375,-176.29040002557434,0.0,False,,False,,,,,30
128.47,2.7010291900000993,-0.89794921875,0.345458984375,-0.05908203125,3.0839694656488548,0.0916030534351145,12.122137404580153,5303,-287,0,116.52099609375,-176.29040002557434,0.0,False,,False,,,,,30
128.475,2.703030179000052,-0.908447265625,0.329345703125,-0.054931640625,4.213740458015267,-0.0916030534351145,12.213740458015266,5237,-291,0,115.07080078125,-184.68843182736688,0.0,False,,False,,,,,30
128.475,2.7050315010001214,-0.908447265625,0.329345703125,-0.054931640625,4.213740458015267,-0.0916030534351145,12.213740458015266,5237,-291,0,115.07080078125,-184.68843182736688,0.0,False,,False,,,,,30
128.48,2.7070328600000266,-0.929443359375,0.342529296875,-0.044677734375,2.0763358778625953,-0.15267175572519084,14.351145038167939,5166,-325,4,113.5107421875,-193.32487364824314,0.005256,False,,False,,,,,30
128.48,2.7090345520000483,-0.929443359375,0.342529296875,-0.044677734375,2.0763358778625953,-0.15267175572519084,14.351145038167939,5166,-325,4,113.5107421875,-193.32487364824314,0.005256,False,,False,,,,,30
128.48,2.7110351890000857,-0.929443359375,0.342529296875,-0.044677734375,2.0763358778625953,-0.15267175572519084,14.351145038167939,5166,-325,4,113.5107421875,-193.32487364824314,0.005256,False,,False,,,,,30
128.485,2.713036215000102,-0.923095703125,0.344482421875,-0.05517578125,2.5343511450381677,-0.8244274809160305,15.511450381679388,5091,-329,0,111.86279296875,-202.25861249210425,0.0,False,,False,,,,,30
128.485,2.715037129000166,-0.923095703125,0.344482421875,-0.05517578125,2.5343511450381677,-0.8244274809160305,15.511450381679388,5091,-329,0,111.86279296875,-202.25861249210425,0.0,False,,False,,,,,30
128.49,2.717038673000161,-0.908935546875,0.355712890625,-0.06689453125,0.8549618320610687,-0.7633587786259541,16.793893129770993,5010,-364,0,110.0830078125,-211.61421858055783,0.0,False,,False,,,,,30
128.49,2.7190419400001247,-0.908935546875,0.355712890625,-0.06689453125,0.8549618320610687,-0.7633587786259541,16.793893129770993,5010,-364,0,110.0830078125,-211.61421858055783,0.0,False,,False,,,,,30
128.49,2.7210413540001355,-0.908935546875,0.355712890625,-0.06689453125,0.8549618320610687,-0.7633587786259541,16.793893129770993,5010,-364,0,110.0830078125,-211.61421858055783,0.0,False,,False,,,,,30
128.495,2.7230432870001096,-0.91455078125,0.351318359375,-0.068603515625,1.1908396946564885,-1.4961832061068703,16.458015267175572,4927,-361,-1,108.25927734375,-221.47395274963944,-0.001314,False,,False,,,,,30
128.495,2.725044128000036,-0.91455078125,0.351318359375,-0.068603515625,1.1908396946564885,-1.4961832061068703,16.458015267175572,4927,-361,-1,108.25927734375,-221.47395274963944,-0.001314,False,,False,,,,,30
128.5,2.7270459310000206,-0.9267578125,0.348388671875,-0.077880859375,4.641221374045801,-0.916030534351145,16.12213740458015,4845,-360,1,106.45751953125,-231.7561387631377,0.001314,False,,False,,,,,30
128.5,2.7290482160001375,-0.9267578125,0.348388671875,-0.077880859375,4.641221374045801,-0.916030534351145,16.12213740458015,4845,-360,1,106.45751953125,-231.7561387631377,0.001314,False,,False,,,,,30
128.5,2.7310494640000798,-0.9267578125,0.348388671875,-0.077880859375,4.641221374045801,-0.916030534351145,16.12213740458015,4845,-360,1,106.45751953125,-231.7561387631377,0.001314,False,,False,,,,,30
128.505,2.7330545639999855,-0.93896484375,0.344970703125,-0.06640625,5.465648854961832,-1.2519083969465647,16.30534351145038,4766,-360,-3,104.7216796875,-242.19529171946348,-0.003942,False,,False,,,,,30
128.505,2.7350529600000755,-0.93896484375,0.344970703125,-0.06640625,5.465648854961832,-1.2519083969465647,16.30534351145038,4766,-360,-3,104.7216796875,-242.19529171946348,-0.003942,False,,False,,,,,30
128.51,2.7370535780000864,-0.935546875,0.33984375,-0.06640625,4.305343511450381,-1.282442748091603,17.00763358778626,4683,-370,-5,102.89794921875,-252.56687859321974,-0.0065699999999999995,False,,False,,,,,30
128.51,2.7390551400001186,-0.935546875,0.33984375,-0.06640625,4.305343511450381,-1.282442748091603,17.00763358778626,4683,-370,-5,102.89794921875,-252.56687859321974,-0.0065699999999999995,False,,False,,,,,30
128.51,2.7410565740001402,-0.935546875,0.33984375,-0.06640625,4.305343511450381,-1.282442748091603,17.00763358778626,4683,-370,-5,102.89794921875,-252.56687859321974,-0.0065699999999999995,False,,False,,,,,30
128.51500000000001,2.7430583400000614,-0.947998046875,0.346435546875,-0.05859375,4.488549618320611,-1.2213740458015268,17.46564885496183,4596,-382,-3,100.986328125,-262.87489037790334,-0.003942,False,,False,,,,,30
128.51500000000001,2.745059699000194,-0.947998046875,0.346435546875,-0.05859375,4.488549618320611,-1.2213740458015268,17.46564885496183,4596,-382,-3,100.986328125,-262.87489037790334,-0.003942,False,,False,,,,,30
128.52,2.7470617240001047,-0.951171875,0.3603515625,-0.05615234375,5.343511450381679,-1.9236641221374045,17.221374045801525,4507,-389,4,99.03076171875,-273.2031672179142,0.005256,False,,False,,,,,30
128.52,2.7490626950000205,-0.951171875,0.3603515625,-0.05615234375,5.343511450381679,-1.9236641221374045,17.221374045801525,4507,-389,4,99.03076171875,-273.2031672179142,0.005256,False,,False,,,,,30
128.52,2.7510638870001003,-0.951171875,0.3603515625,-0.05615234375,5.343511450381679,-1.9236641221374045,17.221374045801525,4507,-389,4,99.03076171875,-273.2031672179142,0.005256,False,,False,,,,,30
128.525,2.7530692090001594,-0.96484375,0.36083984375,-0.058349609375,8.15267175572519,-1.9541984732824427,16.946564885496183,4423,-376,1,97.18505859375,-283.4465334509493,0.001314,False,,False,,,,,30
128.525,2.7550670310001806,-0.96484375,0.36083984375,-0.058349609375,8.15267175572519,-1.9541984732824427,16.946564885496183,4423,-376,1,97.18505859375,-283.4465334509493,0.001314,False,,False,,,,,30
128.53,2.757068408000123,-0.970703125,0.33740234375,-0.058837890625,9.557251908396946,-2.2900763358778624,15.938931297709923,4343,-355,-7,95.42724609375,-293.27943413014884,-0.009198,False,,False,,,,,30
128.53,2.759069545000102,-0.970703125,0.33740234375,-0.058837890625,9.557251908396946,-2.2900763358778624,15.938931297709923,4343,-355,-7,95.42724609375,-293.27943413014884,-0.009198,False,,False,,,,,30
128.535,2.761070997000161,-0.9765625,0.342041015625,-0.048583984375,8.82442748091603,-2.2900763358778624,16.641221374045802,4259,-370,-5,93.58154296875,-302.48301370733844,-0.0065699999999999995,False,,False,,,,,30
128.535,2.76307220700005,-0.9765625,0.342041015625,-0.048583984375,8.82442748091603,-2.2900763358778624,16.641221374045802,4259,-370,-5,93.58154296875,-302.48301370733844,-0.0065699999999999995,False,,False,,,,,30
128.535,2.7650752890001513,-0.9765625,0.342041015625,-0.048583984375,8.82442748091603,-2.2900763358778624,16.641221374045802,4259,-370,-5,93.58154296875,-302.48301370733844,-0.0065699999999999995,False,,False,,,,,30
128.54,2.767075128999977,-0.9775390625,0.356201171875,-0.0478515625,7.480916030534351,-2.8091603053435112,16.732824427480914,4178,-361,-2,91.8017578125,-311.0423230616685,-0.002628,False,,False,,,,,30
128.54,2.7690758950000145,-0.9775390625,0.356201171875,-0.0478515625,7.480916030534351,-2.8091603053435112,16.732824427480914,4178,-361,-2,91.8017578125,-311.0423230616685,-0.002628,False,,False,,,,,30
128.54,2.7710778279999886,-0.9775390625,0.356201171875,-0.0478515625,7.480916030534351,-2.8091603053435112,16.732824427480914,4178,-361,-2,91.8017578125,-311.0423230616685,-0.002628,False,,False,,,,,30
128.54500000000002,2.773079687000063,-0.95849609375,0.36669921875,-0.055419921875,7.633587786259541,-2.6564885496183206,16.580152671755723,4091,-375,0,89.89013671875,-319.0019272074652,0.0,False,,False,,,,,30
128.54500000000002,2.7750807690001693,-0.95849609375,0.36669921875,-0.055419921875,7.633587786259541,-2.6564885496183206,16.580152671755723,4091,-375,0,89.89013671875,-319.0019272074652,0.0,False,,False,,,,,30
128.55,2.7770817570001327,-0.968017578125,0.360595703125,-0.0498046875,10.381679389312977,-3.3587786259541983,14.961832061068701,4014,-341,7,88.1982421875,-326.3282449591083,0.009198,False,,False,,,,,30
128.55,2.779082838000022,-0.968017578125,0.360595703125,-0.0498046875,10.381679389312977,-3.3587786259541983,14.961832061068701,4014,-341,7,88.1982421875,-326.3282449591083,0.009198,False,,False,,,,,30
128.55,2.7810841420000543,-0.968017578125,0.360595703125,-0.0498046875,10.381679389312977,-3.3587786259541983,14.961832061068701,4014,-341,7,88.1982421875,-326.3282449591083,0.009198,False,,False,,,,,30
128.555,2.783090316000198,-0.970458984375,0.35107421875,-0.053955078125,13.343511450381678,-2.5038167938931295,13.862595419847327,3943,-300,0,86.63818359375,-332.69994075139095,0.0,False,,False,,,,,30
128.555,2.7850869339999917,-0.970458984375,0.35107421875,-0.053955078125,13.343511450381678,-2.5038167938931295,13.862595419847327,3943,-300,0,86.63818359375,-332.69994075139095,0.0,False,,False,,,,,30
128.56,2.787088274000098,-0.973388671875,0.313720703125,-0.044189453125,14.687022900763358,-2.717557251908397,13.343511450381678,3876,-290,0,85.166015625,-337.76633413647244,0.0,False,,False,,,,,30
128.56,2.7890901150001355,-0.973388671875,0.313720703125,-0.044189453125,14.687022900763358,-2.717557251908397,13.343511450381678,3876,-290,0,85.166015625,-337.76633413647244,0.0,False,,False,,,,,30
128.56,2.791091196000025,-0.973388671875,0.313720703125,-0.044189453125,14.687022900763358,-2.717557251908397,13.343511450381678,3876,-290,0,85.166015625,-337.76633413647244,0.0,False,,False,,,,,30
128.565,2.793092425000168,-0.947998046875,0.300537109375,-0.052490234375,12.916030534351144,-3.1755725190839694,13.129770992366412,3808,-305,0,83.671875,-341.4596541400904,0.0,False,,False,,,,,30
128.565,2.7950935620001474,-0.947998046875,0.300537109375,-0.052490234375,12.916030534351144,-3.1755725190839694,13.129770992366412,3808,-305,0,83.671875,-341.4596541400904,0.0,False,,False,,,,,30
128.57,2.797094773000026,-0.94775390625,0.297119140625,-0.05126953125,12.885496183206106,-3.5114503816793894,12.702290076335878,3741,-289,5,82.19970703125,-343.90221140999097,0.0065699999999999995,False,,False,,,,,30
128.57,2.7990956500000266,-0.94775390625,0.297119140625,-0.05126953125,12.885496183206106,-3.5114503816793894,12.702290076335878,3741,-289,5,82.19970703125,-343.90221140999097,0.0065699999999999995,False,,False,,,,,30
128.575,2.801098379999985,-0.964599609375,0.31982421875,-0.046875,13.862595419847327,-2.9923664122137406,12.549618320610687,3674,-293,2,80.7275390625,-345.2463528184994,0.002628,False,,False,,,,,30
128.575,2.803099442000075,-0.964599609375,0.31982421875,-0.046875,13.862595419847327,-2.9923664122137406,12.549618320610687,3674,-293,2,80.7275390625,-345.2463528184994,0.002628,False,,False,,,,,30
128.575,2.805101820000118,-0.964599609375,0.31982421875,-0.046875,13.862595419847327,-2.9923664122137406,12.549618320610687,3674,-293,2,80.7275390625,-345.2463528184994,0.002628,False,,False,,,,,30
128.58,2.8071032530001503,-0.978271484375,0.305419921875,-0.047607421875,16.183206106870227,-3.297709923664122,11.938931297709923,3612,-272,2,79.365234375,-345.5559548584561,0.002628,False,,False,,,,,30
128.58,2.8091039270000238,-0.978271484375,0.305419921875,-0.047607421875,16.183206106870227,-3.297709923664122,11.938931297709923,3612,-272,2,79.365234375,-345.5559548584561,0.002628,False,,False,,,,,30
128.58,2.8111057300000084,-0.978271484375,0.305419921875,-0.047607421875,16.183206106870227,-3.297709923664122,11.938931297709923,3612,-272,2,79.365234375,-345.5559548584561,0.002628,False,,False,,,,,30
128.585,2.813106163000157,-0.968505859375,0.26708984375,-0.0615234375,18.717557251908396,-3.969465648854962,10.80916030534351,3558,-237,2,78.1787109375,-344.7084937349049,0.002628,False,,False,,,,,30
128.585,2.815107967000131,-0.968505859375,0.26708984375,-0.0615234375,18.717557251908396,-3.969465648854962,10.80916030534351,3558,-237,2,78.1787109375,-344.7084937349049,0.002628,False,,False,,,,,30
128.59,2.8171094740000626,-0.96142578125,0.24169921875,-0.0654296875,18.229007633587784,-3.847328244274809,9.587786259541984,3507,-219,5,77.05810546875,-342.5226632763913,0.0065699999999999995,False,,False,,,,,30
128.59,2.819110907000095,-0.96142578125,0.24169921875,-0.0654296875,18.229007633587784,-3.847328244274809,9.587786259541984,3507,-219,5,77.05810546875,-342.5226632763913,0.0065699999999999995,False,,False,,,,,30
128.595,2.8211120430000847,-0.9970703125,0.26171875,-0.04150390625,17.526717557251906,-3.145038167938931,10.13740458015267,3458,-211,7,75.9814453125,-338.9933906135959,0.009198,False,,False,,,,,30
128.595,2.823114106000048,-0.9970703125,0.26171875,-0.04150390625,17.526717557251906,-3.145038167938931,10.13740458015267,3458,-211,7,75.9814453125,-338.9933906135959,0.009198,False,,False,,,,,30
128.595,2.82511820600007,-0.9970703125,0.26171875,-0.04150390625,17.526717557251906,-3.145038167938931,10.13740458015267,3458,-211,7,75.9814453125,-338.9933906135959,0.009198,False,,False,,,,,30
128.6,2.827117213000065,-0.972900390625,0.26171875,-0.06005859375,15.694656488549617,-2.8702290076335877,9.740458015267174,3409,-217,5,74.90478515625,-334.27913124594437,0.0065699999999999995,False,,False,,,,,30
128.6,2.829118441999981,-0.972900390625,0.26171875,-0.06005859375,15.694656488549617,-2.8702290076335877,9.740458015267174,3409,-217,5,74.90478515625,-334.27913124594437,0.0065699999999999995,False,,False,,,,,30
128.6,2.831121135000103,-0.972900390625,0.26171875,-0.06005859375,15.694656488549617,-2.8702290076335877,9.740458015267174,3409,-217,5,74.90478515625,-334.27913124594437,0.0065699999999999995,False,,False,,,,,30
128.605,2.833121364000135,-0.992431640625,0.2783203125,-0.051025390625,15.114503816793892,-2.595419847328244,10.65648854961832,3357,-227,3,73.76220703125,-328.65703252863347,0.003942,False,,False,,,,,30
128.605,2.8351232600000458,-0.992431640625,0.2783203125,-0.051025390625,15.114503816793892,-2.595419847328244,10.65648854961832,3357,-227,3,73.76220703125,-328.65703252863347,0.003942,False,,False,,,,,30
128.61,2.837124507999988,-0.95263671875,0.250732421875,-0.07373046875,14.65648854961832,-2.6259541984732824,9.190839694656487,3308,-214,6,72.685546875,-322.4040999472782,0.007884,False,,False,,,,,30
128.61,2.8391255520000414,-0.95263671875,0.250732421875,-0.07373046875,14.65648854961832,-2.6259541984732824,9.190839694656487,3308,-214,6,72.685546875,-322.4040999472782,0.007884,False,,False,,,,,30
128.615,2.8411279480001213,-0.984130859375,0.2822265625,-0.047119140625,15.938931297709923,-0.6717557251908397,10.442748091603052,3262,-204,-2,71.6748046875,-315.61813579575613,-0.002628,False,,False,,,,,30
128.615,2.84312940000018,-0.984130859375,0.2822265625,-0.047119140625,15.938931297709923,-0.6717557251908397,10.442748091603052,3262,-204,-2,71.6748046875,-315.61813579575613,-0.002628,False,,False,,,,,30
128.615,2.8451322770001752,-0.984130859375,0.2822265625,-0.047119140625,15.938931297709923,-0.6717557251908397,10.442748091603052,3262,-204,-2,71.6748046875,-315.61813579575613,-0.002628,False,,False,,,,,30
128.62,2.8471319689999746,-0.948974609375,0.23291015625,-0.04833984375,15.206106870229007,-0.21374045801526717,10.625954198473282,3215,-208,-5,70.64208984375,-308.3569090571096,-0.0065699999999999995,False,,False,,,,,30
128.62,2.849132902000065,-0.948974609375,0.23291015625,-0.04833984375,15.206106870229007,-0.21374045801526717,10.625954198473282,3215,-208,-5,70.64208984375,-308.3569090571096,-0.0065699999999999995,False,,False,,,,,30
128.625,2.851134835000039,-0.98095703125,0.224609375,-0.036376953125,16.366412213740457,-0.7938931297709924,10.290076335877862,3176,-172,-5,69.78515625,-300.65975227026445,-0.0065699999999999995,False,,False,,,,,30
128.625,2.8531363980000606,-0.98095703125,0.224609375,-0.036376953125,16.366412213740457,-0.7938931297709924,10.290076335877862,3176,-172,-5,69.78515625,-300.65975227026445,-0.0065699999999999995,False,,False,,,,,30
128.63,2.8578015200000664,-0.958740234375,0.199951171875,-0.059814453125,16.916030534351144,-0.6106870229007634,9.068702290076336,3145,-123,0,69.10400390625,-292.3430908179629,0.0,False,,False,,,,,30
128.63,2.8597994530000506,-0.958740234375,0.199951171875,-0.059814453125,16.916030534351144,-0.6106870229007634,9.068702290076336,3145,-123,0,69.10400390625,-292.3430908179629,0.0,False,,False,,,,,30
128.635,2.8626021780000883,-1.001708984375,0.184326171875,-0.04638671875,19.358778625954198,-1.1603053435114503,7.908396946564885,3125,-77,-13,68.66455078125,-283.07122688224257,-0.017082,False,,False,,,,,30
128.635,2.8646014620001097,-1.001708984375,0.184326171875,-0.04638671875,19.358778625954198,-1.1603053435114503,7.908396946564885,3125,-77,-13,68.66455078125,-283.07122688224257,-0.017082,False,,False,,,,,30
128.64000000000001,2.8666029140001683,-0.988525390625,0.195556640625,-0.05615234375,13.404580152671755,-0.030534351145038167,8.122137404580153,3107,-80,-5,68.26904296875,-272.62470494403055,-0.0065699999999999995,False,,False,,,,,30
128.64000000000001,2.868603310000026,-0.988525390625,0.195556640625,-0.05615234375,13.404580152671755,-0.030534351145038167,8.122137404580153,3107,-80,-5,68.26904296875,-272.62470494403055,-0.0065699999999999995,False,,False,,,,,30
128.64000000000001,2.870604354000079,-0.988525390625,0.195556640625,-0.05615234375,13.404580152671755,-0.030534351145038167,8.122137404580153,3107,-80,-5,68.26904296875,-272.62470494403055,-0.0065699999999999995,False,,False,,,,,30
128.645,2.8726062690000163,-0.995361328125,0.213623046875,-0.062255859375,13.465648854961831,0.42748091603053434,7.419847328244274,3093,-52,0,67.96142578125,-261.0437205219221,0.0,False,,False,,,,,30
128.645,2.874608997999985,-0.995361328125,0.213623046875,-0.062255859375,13.465648854961831,0.42748091603053434,7.419847328244274,3093,-52,0,67.96142578125,-261.0437205219221,0.0,False,,False,,,,,30
128.65,2.87660939400007,-1.0166015625,0.225341796875,-0.068115234375,17.19083969465649,1.1908396946564885,5.9541984732824424,3091,-10,2,67.91748046875,-248.33061243599568,0.002628,False,,False,,,,,30
128.65,2.8786109570000917,-1.0166015625,0.225341796875,-0.068115234375,17.19083969465649,1.1908396946564885,5.9541984732824424,3091,-10,2,67.91748046875,-248.33061243599568,0.002628,False,,False,,,,,30
128.65,2.880612723000013,-1.0166015625,0.225341796875,-0.068115234375,17.19083969465649,1.1908396946564885,5.9541984732824424,3091,-10,2,67.91748046875,-248.33061243599568,0.002628,False,,False,,,,,30
128.655,2.882613823000156,-1.015869140625,0.246826171875,-0.077392578125,18.137404580152673,2.1374045801526718,5.9541984732824424,3093,9,3,67.96142578125,-234.34458354294074,0.003942,False,,False,,,,,30
128.655,2.8846159970000826,-1.015869140625,0.246826171875,-0.077392578125,18.137404580152673,2.1374045801526718,5.9541984732824424,3093,9,3,67.96142578125,-234.34458354294074,0.003942,False,,False,,,,,30
128.66,2.8866158740001993,-0.99951171875,0.28759765625,-0.06298828125,13.007633587786259,3.9389312977099236,6.473282442748092,3096,4,0,68.02734375,-219.16127303139953,0.0,False,,False,,,,,30
128.66,2.888617695999983,-0.99951171875,0.28759765625,-0.06298828125,13.007633587786259,3.9389312977099236,6.473282442748092,3096,4,0,68.02734375,-219.16127303139953,0.0,False,,False,,,,,30
128.66,2.890618814000163,-0.99951171875,0.28759765625,-0.06298828125,13.007633587786259,3.9389312977099236,6.473282442748092,3096,4,0,68.02734375,-219.16127303139953,0.0,False,,False,,,,,30
128.665,2.8926195250001,-0.988037109375,0.32373046875,-0.06689453125,13.770992366412214,5.129770992366412,6.900763358778626,3094,-5,-6,67.9833984375,-203.17966118494084,-0.007884,False,,False,,,,,30
128.665,2.894624032000138,-0.988037109375,0.32373046875,-0.06689453125,13.770992366412214,5.129770992366412,6.900763358778626,3094,-5,-6,67.9833984375,-203.17966118494084,-0.007884,False,,False,,,,,30
128.67000000000002,2.8966227800001434,-0.976318359375,0.35302734375,-0.065673828125,16.12213740458015,5.801526717557252,7.419847328244274,3096,7,-8,68.02734375,-186.84082530450317,-0.010512,False,,False,,,,,30
128.67000000000002,2.89862508300007,-0.976318359375,0.35302734375,-0.065673828125,16.12213740458015,5.801526717557252,7.419847328244274,3096,7,-8,68.02734375,-186.84082530450317,-0.010512,False,,False,,,,,30
128.67000000000002,2.9006258130000333,-0.976318359375,0.35302734375,-0.065673828125,16.12213740458015,5.801526717557252,7.419847328244274,3096,7,-8,68.02734375,-186.84082530450317,-0.010512,False,,False,,,,,30
128.675,2.9026270790000126,-0.969970703125,0.364501953125,-0.068359375,18.076335877862594,5.587786259541985,7.480916030534351,3098,11,-10,68.0712890625,-170.3918774791806,-0.013139999999999999,False,,False,,,,,30
128.675,2.9046295310001824,-0.969970703125,0.364501953125,-0.068359375,18.076335877862594,5.587786259541985,7.480916030534351,3098,11,-10,68.0712890625,-170.3918774791806,-0.013139999999999999,False,,False,,,,,30
128.68,2.9066303530000823,-0.983642578125,0.34619140625,-0.072021484375,21.893129770992367,4.9465648854961835,6.8396946564885495,3101,5,-9,68.13720703125,-154.00945939215748,-0.011826,False,,False,,,,,30
128.68,2.908635878000041,-0.983642578125,0.34619140625,-0.072021484375,21.893129770992367,4.9465648854961835,6.8396946564885495,3101,5,-9,68.13720703125,-154.00945939215748,-0.011826,False,,False,,,,,30
128.68,2.910633478000136,-0.983642578125,0.34619140625,-0.072021484375,21.893129770992367,4.9465648854961835,6.8396946564885495,3101,5,-9,68.13720703125,-154.00945939215748,-0.011826,False,,False,,,,,30
128.685,2.912638374000153,-0.982666015625,0.350830078125,-0.07421875,21.679389312977097,4.549618320610687,6.931297709923664,3100,-1,-1,68.115234375,-137.9518975695136,-0.001314,False,,False,,,,,30
128.685,2.914637900000116,-0.982666015625,0.350830078125,-0.07421875,21.679389312977097,4.549618320610687,6.931297709923664,3100,-1,-1,68.115234375,-137.9518975695136,-0.001314,False,,False,,,,,30
128.69,2.9166373880000265,-0.964111328125,0.374267578125,-0.073974609375,19.877862595419845,4.366412213740458,7.8473282442748085,3100,-1,-2,68.115234375,-122.49441450558467,-0.002628,False,,False,,,,,30
128.69,2.9186379880000004,-0.964111328125,0.374267578125,-0.073974609375,19.877862595419845,4.366412213740458,7.8473282442748085,3100,-1,-2,68.115234375,-122.49441450558467,-0.002628,False,,False,,,,,30
128.69,2.9206404770000063,-0.964111328125,0.374267578125,-0.073974609375,19.877862595419845,4.366412213740458,7.8473282442748085,3100,-1,-2,68.115234375,-122.49441450558467,-0.002628,False,,False,,,,,30
128.695,2.922641612999996,-0.933349609375,0.367431640625,-0.084716796875,20.519083969465647,2.748091603053435,6.198473282442748,3101,1,-1,68.13720703125,-107.77915028307514,-0.001314,False,,False,,,,,30
128.695,2.924644880000187,-0.933349609375,0.367431640625,-0.084716796875,20.519083969465647,2.748091603053435,6.198473282442748,3101,1,-1,68.13720703125,-107.77915028307514,-0.001314,False,,False,,,,,30
128.7,2.9266452200001822,-0.930908203125,0.43701171875,-0.093017578125,27.877862595419845,1.4961832061068703,6.564885496183206,3101,7,-5,68.13720703125,-93.86660287231636,-0.0065699999999999995,False,,False,,,,,30
128.7,2.9286462460001985,-0.930908203125,0.43701171875,-0.093017578125,27.877862595419845,1.4961832061068703,6.564885496183206,3101,7,-5,68.13720703125,-93.86660287231636,-0.0065699999999999995,False,,False,,,,,30
128.7,2.9306476970000404,-0.930908203125,0.43701171875,-0.093017578125,27.877862595419845,1.4961832061068703,6.564885496183206,3101,7,-5,68.13720703125,-93.86660287231636,-0.0065699999999999995,False,,False,,,,,30
128.705,2.9326496300000144,-0.858642578125,0.41162109375,-0.0712890625,21.679389312977097,1.099236641221374,8.458015267175572,3104,13,-4,68.203125,-80.79579132545297,-0.005256,False,,False,,,,,30
128.705,2.9346522120001737,-0.858642578125,0.41162109375,-0.0712890625,21.679389312977097,1.099236641221374,8.458015267175572,3104,13,-4,68.203125,-80.79579132545297,-0.005256,False,,False,,,,,30
128.71,2.9366525340001317,-0.894775390625,0.460205078125,-0.068115234375,22.870229007633586,2.259541984732824,9.49618320610687,3104,7,3,68.203125,-68.58718768011492,0.003942,False,,False,,,,,30
128.71,2.938653355000042,-0.894775390625,0.460205078125,-0.068115234375,22.870229007633586,2.259541984732824,9.49618320610687,3104,7,3,68.203125,-68.58718768011492,0.003942,False,,False,,,,,30
128.71,2.9406552890000057,-0.894775390625,0.460205078125,-0.068115234375,22.870229007633586,2.259541984732824,9.49618320610687,3104,7,3,68.203125,-68.58718768011492,0.003942,False,,False,,,,,30
128.715,2.9426559250000537,-0.851318359375,0.480712890625,-0.095703125,28.488549618320608,0.2748091603053435,9.465648854961831,3109,11,1,68.31298828125,-57.245440180893404,0.001314,False,,False,,,,,30
128.715,2.9446585430000596,-0.851318359375,0.480712890625,-0.095703125,28.488549618320608,0.2748091603053435,9.465648854961831,3109,11,1,68.31298828125,-57.245440180893404,0.001314,False,,False,,,,,30
128.72,2.946658958000171,-0.854248046875,0.424560546875,-0.079833984375,33.95419847328244,-2.8396946564885495,9.587786259541984,3109,5,3,68.31298828125,-46.76188234534873,0.003942,False,,False,,,,,30
128.72,2.948660187000087,-0.854248046875,0.424560546875,-0.079833984375,33.95419847328244,-2.8396946564885495,9.587786259541984,3109,5,3,68.31298828125,-46.76188234534873,0.003942,False,,False,,,,,30
128.72,2.9506637500001034,-0.854248046875,0.424560546875,-0.079833984375,33.95419847328244,-2.8396946564885495,9.587786259541984,3109,5,3,68.31298828125,-46.76188234534873,0.003942,False,,False,,,,,30
128.725,2.95266312800004,-0.856689453125,0.390625,-0.071044921875,33.64885496183206,-3.5114503816793894,8.977099236641221,3110,7,-9,68.3349609375,-37.21231995040627,-0.011826,False,,False,,,,,30
128.725,2.954665949000173,-0.856689453125,0.390625,-0.071044921875,33.64885496183206,-3.5114503816793894,8.977099236641221,3110,7,-9,68.3349609375,-37.21231995040627,-0.011826,False,,False,,,,,30
128.73,2.956665642000189,-0.85302734375,0.386962890625,-0.070068359375,34.229007633587784,-4.427480916030534,8.51908396946565,3109,-5,-12,68.31298828125,-28.662601258073025,-0.015768,False,,False,,,,,30
128.73,2.958667149000121,-0.85302734375,0.386962890625,-0.070068359375,34.229007633587784,-4.427480916030534,8.51908396946565,3109,-5,-12,68.31298828125,-28.662601258073025,-0.015768,False,,False,,,,,30
128.73,2.9606689520001055,-0.85302734375,0.386962890625,-0.070068359375,34.229007633587784,-4.427480916030534,8.51908396946565,3109,-5,-12,68.31298828125,-28.662601258073025,-0.015768,False,,False,,,,,30
128.735,2.9626705709999896,-0.84814453125,0.380859375,-0.068603515625,35.87786259541985,-5.9541984732824424,7.755725190839694,3108,-6,-4,68.291015625,-21.121537578056206,-0.005256,False,,False,,,,,30
