state_time,loop_time,accel_x,accel_y,accel_z,gyro_x,gyro_y,gyro_z,motor_angle,motor_velocity,motor_current,hip_angle,hip_velocity,hip_torque_from_current,did_heel_strike,gait_phase,did_toe_off,commanded_current,commanded_position,commanded_torque,commanded_voltage,temperature
381.63800000000003,2.00391851400002,-0.93359375,0.396240234375,0.06689453125,-1.0076335877862594,0.4580152671755725,-2.2900763358778624,20752,135,3,-3.9404895671179645,-0.00027410997327266496,0.003942,False,,False,,,,,29
381.63800000000003,2.005920729999957,-0.93359375,0.396240234375,0.06689453125,-1.0076335877862594,0.4580152671755725,-2.2900763358778624,20752,135,3,-3.9404895671179645,-0.00027410997327266496,0.003942,False,,False,,,,,29
381.64300000000003,2.0079225199999655,-0.888671875,0.3837890625,0.04296875,-2.229007633587786,1.465648854961832,-0.7633587786259541,20778,116,4,-3.8762195475867145,40.054722426182316,0.005256,False,,False,,,,,29
381.64300000000003,2.0102243249999674,-0.888671875,0.3837890625,0.04296875,-2.229007633587786,1.465648854961832,-0.7633587786259541,20778,116,4,-3.8762195475867145,40.054722426182316,0.005256,False,,False,,,,,29
381.648,2.0122280959999443,-0.928955078125,0.384765625,0.041748046875,3.6946564885496183,1.8625954198473282,-0.916030534351145,20810,141,0,-3.7971179850867145,193.18749266832293,0.0,False,,False,,,,,29
381.648,2.014395426999954,-0.928955078125,0.384765625,0.041748046875,3.6946564885496183,1.8625954198473282,-0.916030534351145,20810,141,0,-3.7971179850867145,193.18749266832293,0.0,False,,False,,,,,29
381.653,2.016400124000029,-0.909912109375,0.364013671875,0.036376953125,3.3893129770992365,1.3129770992366412,-0.916030534351145,20841,136,0,-3.7204883464148395,478.8485633091681,0.0,False,,False,,,,,29
381.653,2.018561474999956,-0.909912109375,0.364013671875,0.036376953125,3.3893129770992365,1.3129770992366412,-0.916030534351145,20841,136,0,-3.7204883464148395,478.8485633091681,0.0,False,,False,,,,,29
381.653,2.020562820000009,-0.909912109375,0.364013671875,0.036376953125,3.3893129770992365,1.3129770992366412,-0.916030534351145,20841,136,0,-3.7204883464148395,478.8485633091681,0.0,False,,False,,,,,29
381.658,2.0225651099999595,-0.94677734375,0.348388671875,0.0341796875,4.6106870229007635,1.1908396946564885,-1.4045801526717556,20875,152,1,-3.6364429362585895,871.3341351688249,0.001314,False,,False,,,,,29
381.658,2.0245654000000286,-0.94677734375,0.348388671875,0.0341796875,4.6106870229007635,1.1908396946564885,-1.4045801526717556,20875,152,1,-3.6364429362585895,871.3341351688249,0.001314,False,,False,,,,,29
381.663,2.0265668020000476,-0.931396484375,0.361083984375,0.02685546875,3.145038167938931,2.4427480916030535,0.549618320610687,20904,130,7,-3.5647571452429645,1347.565388391526,0.009198,False,,False,,,,,29
381.663,2.0285676470000453,-0.931396484375,0.361083984375,0.02685546875,3.145038167938931,2.4427480916030535,0.549618320610687,20904,130,7,-3.5647571452429645,1347.565388391526,0.009198,False,,False,,,,,29
381.663,2.030570752000017,-0.931396484375,0.361083984375,0.02685546875,3.145038167938931,2.4427480916030535,0.549618320610687,20904,130,7,-3.5647571452429645,1347.565388391526,0.009198,False,,False,,,,,29
381.668,2.032571430999951,-0.95166015625,0.378173828125,0.02197265625,4.366412213740458,2.595419847328244,0.8244274809160305,20937,147,6,-3.4831836589148395,1887.0025862042892,0.007884,False,,False,,,,,29
381.668,2.0345733499999596,-0.95166015625,0.378173828125,0.02197265625,4.366412213740458,2.595419847328244,0.8244274809160305,20937,147,6,-3.4831836589148395,1887.0025862042892,0.007884,False,,False,,,,,29
381.673,2.036577714000032,-0.917236328125,0.380615234375,0.010498046875,2.6259541984732824,2.5038167938931295,2.259541984732824,20966,119,10,-3.4114978678992145,2471.5381716628563,0.013139999999999999,False,,False,,,,,29
381.673,2.038576560000024,-0.917236328125,0.380615234375,0.010498046875,2.6259541984732824,2.5038167938931295,2.259541984732824,20966,119,10,-3.4114978678992145,2471.5381716628563,0.013139999999999999,False,,False,,,,,29
381.673,2.040578830999948,-0.917236328125,0.380615234375,0.010498046875,2.6259541984732824,2.5038167938931295,2.259541984732824,20966,119,10,-3.4114978678992145,2471.5381716628563,0.013139999999999999,False,,False,,,,,29
381.678,2.042581584000004,-0.94189453125,0.3798828125,0.0146484375,2.8396946564885495,2.351145038167939,2.778625954198473,20992,112,1,-3.3472278483679645,3085.3487593318605,0.001314,False,,False,,,,,29
381.678,2.0445812450000176,-0.94189453125,0.3798828125,0.0146484375,2.8396946564885495,2.351145038167939,2.778625954198473,20992,112,1,-3.3472278483679645,3085.3487593318605,0.001314,False,,False,,,,,29
381.683,2.0465850900000078,-0.927490234375,0.404052734375,0.012451171875,2.198473282442748,3.6030534351145036,5.343511450381679,21006,56,3,-3.3126209147742145,3714.736344764137,0.003942,False,,False,,,,,29
381.683,2.0485845650000556,-0.927490234375,0.404052734375,0.012451171875,2.198473282442748,3.6030534351145036,5.343511450381679,21006,56,3,-3.3126209147742145,3714.736344764137,0.003942,False,,False,,,,,29
381.683,2.0505884289999585,-0.927490234375,0.404052734375,0.012451171875,2.198473282442748,3.6030534351145036,5.343511450381679,21006,56,3,-3.3126209147742145,3714.736344764137,0.003942,False,,False,,,,,29
381.688,2.0525880530000222,-0.918701171875,0.41162109375,0.003173828125,-4.2748091603053435,4.458015267175572,9.404580152671755,21004,-10,2,-3.3175647624304645,4347.96994969076,0.002628,False,,False,,,,,29
381.688,2.054588953999996,-0.918701171875,0.41162109375,0.003173828125,-4.2748091603053435,4.458015267175572,9.404580152671755,21004,-10,2,-3.3175647624304645,4347.96994969076,0.002628,False,,False,,,,,29
381.693,2.056595242999947,-0.923583984375,0.424072265625,0.007080078125,-1.6793893129770991,5.190839694656488,9.862595419847327,20998,-19,-2,-3.3323963053992145,4975.163945602032,-0.002628,False,,False,,,,,29
381.693,2.0585924409999734,-0.923583984375,0.424072265625,0.007080078125,-1.6793893129770991,5.190839694656488,9.862595419847327,20998,-19,-2,-3.3323963053992145,4975.163945602032,-0.002628,False,,False,,,,,29
381.693,2.060596712000006,-0.923583984375,0.424072265625,0.007080078125,-1.6793893129770991,5.190839694656488,9.862595419847327,20998,-19,-2,-3.3323963053992145,4975.163945602032,-0.002628,False,,True,,,,,29
381.69800000000004,2.0636189299999614,-0.934326171875,0.423583984375,0.016357421875,3.0534351145038165,4.641221374045801,9.007633587786259,20998,8,-9,-3.3323963053992145,5588.183474984369,-0.011826,False,,False,,,,,29
381.69800000000004,2.065715126999976,-0.934326171875,0.423583984375,0.016357421875,3.0534351145038165,4.641221374045801,9.007633587786259,20998,8,-9,-3.3323963053992145,5588.183474984369,-0.011826,False,,False,,,,,29
381.70300000000003,2.06793996600004,-0.935302734375,0.409423828125,0.03271484375,6.229007633587786,4.305343511450381,10.045801526717558,20999,0,-2,-3.3299243815710895,6180.471869617969,-0.002628,False,,False,,,,,29
381.70300000000003,2.0699407189999874,-0.935302734375,0.409423828125,0.03271484375,6.229007633587786,4.305343511450381,10.045801526717558,20999,0,-2,-3.3299243815710895,6180.471869617969,-0.002628,False,,False,,,,,29
381.708,2.0721913300000097,-0.95556640625,0.333251953125,0.03662109375,4.366412213740458,2.717557251908397,11.358778625954198,20999,1,2,-3.3299243815710895,6746.836752438429,0.002628,False,,False,,,,,29
381.708,2.074189398000044,-0.95556640625,0.333251953125,0.03662109375,4.366412213740458,2.717557251908397,11.358778625954198,20999,1,2,-3.3299243815710895,6746.836752438429,0.002628,False,,False,,,,,29
381.713,2.076192558999992,-0.95947265625,0.317626953125,0.04150390625,3.2061068702290076,2.381679389312977,11.786259541984732,20998,-5,0,-3.3323963053992145,7283.290592917669,0.0,False,,False,,,,,29
381.713,2.0783719800000426,-0.95947265625,0.317626953125,0.04150390625,3.2061068702290076,2.381679389312977,11.786259541984732,20998,-5,0,-3.3323963053992145,7283.290592917669,0.0,False,,False,,,,,29
381.713,2.080688003999967,-0.95947265625,0.317626953125,0.04150390625,3.2061068702290076,2.381679389312977,11.786259541984732,20998,-5,0,-3.3323963053992145,7283.290592917669,0.0,False,,False,,,,,29
381.718,2.08269764399995,-0.9599609375,0.31396484375,0.048828125,2.4122137404580153,1.9541984732824427,11.511450381679388,20999,0,-4,-3.3299243815710895,7786.930207244024,-0.005256,False,,False,,,,,29
381.718,2.084685622000052,-0.9599609375,0.31396484375,0.048828125,2.4122137404580153,1.9541984732824427,11.511450381679388,20999,0,-4,-3.3299243815710895,7786.930207244024,-0.005256,False,,False,,,,,29
381.723,2.0866866720000417,-0.963134765625,0.30615234375,0.05224609375,1.8015267175572518,1.6793893129770991,11.755725190839694,20998,-5,-3,-3.3323963053992145,8255.80405491362,-0.003942,False,,False,,,,,29
381.723,2.088689553999984,-0.963134765625,0.30615234375,0.05224609375,1.8015267175572518,1.6793893129770991,11.755725190839694,20998,-5,-3,-3.3323963053992145,8255.80405491362,-0.003942,False,,False,,,,,29
381.723,2.0906909919999634,-0.963134765625,0.30615234375,0.05224609375,1.8015267175572518,1.6793893129770991,11.755725190839694,20998,-5,-3,-3.3323963053992145,8255.80405491362,-0.003942,False,,False,,,,,29
381.728,2.0926925969999957,-0.951416015625,0.289306640625,0.0419921875,0.24427480916030533,-0.12213740458015267,11.81679389312977,20999,6,4,-3.3299243815710895,8688.780193658575,0.005256,False,,False,,,,,29
381.728,2.0946939430000384,-0.951416015625,0.289306640625,0.0419921875,0.24427480916030533,-0.12213740458015267,11.81679389312977,20999,6,4,-3.3299243815710895,8688.780193658575,0.005256,False,,False,,,,,29
381.733,2.096754517000022,-0.94970703125,0.287353515625,0.044677734375,-0.4580152671755725,-0.5190839694656488,11.81679389312977,21001,9,2,-3.3249805339148395,9085.4363939698,0.002628,False,,False,,,,,29
381.733,2.0987534739999774,-0.94970703125,0.287353515625,0.044677734375,-0.4580152671755725,-0.5190839694656488,11.81679389312977,21001,9,2,-3.3249805339148395,9085.4363939698,0.002628,False,,False,,,,,29
381.733,2.100755374999949,-0.94970703125,0.287353515625,0.044677734375,-0.4580152671755725,-0.5190839694656488,11.81679389312977,21001,9,2,-3.3249805339148395,9085.4363939698,0.002628,False,,False,,,,,29
381.738,2.1027558509999835,-0.956787109375,0.27978515625,0.048583984375,-0.8854961832061068,-1.099236641221374,12.15267175572519,21001,8,3,-3.3249805339148395,9445.943539544096,0.003942,False,,False,,,,,29
381.738,2.104757178,-0.956787109375,0.27978515625,0.048583984375,-0.8854961832061068,-1.099236641221374,12.15267175572519,21001,8,3,-3.3249805339148395,9445.943539544096,0.003942,False,,False,,,,,29
381.743,2.106760578000035,-0.93896484375,0.260986328125,0.037353515625,-2.1068702290076335,-2.595419847328244,11.938931297709923,21001,3,3,-3.3249805339148395,9770.959420009382,0.003942,False,,False,,,,,29
381.743,2.1087594619999663,-0.93896484375,0.260986328125,0.037353515625,-2.1068702290076335,-2.595419847328244,11.938931297709923,21001,3,3,-3.3249805339148395,9770.959420009382,0.003942,False,,False,,,,,29
381.743,2.110761807000017,-0.93896484375,0.260986328125,0.037353515625,-2.1068702290076335,-2.595419847328244,11.938931297709923,21001,3,3,-3.3249805339148395,9770.959420009382,0.003942,False,,False,,,,,29
381.748,2.1127629119999938,-0.944580078125,0.258544921875,0.033203125,-3.969465648854962,-3.114503816793893,11.908396946564885,21001,4,-3,-3.3249805339148395,10061.550667511849,-0.003942,False,,False,,,,,29
381.748,2.1147637200000418,-0.944580078125,0.258544921875,0.033203125,-3.969465648854962,-3.114503816793893,11.908396946564885,21001,4,-3,-3.3249805339148395,10061.550667511849,-0.003942,False,,False,,,,,29
381.753,2.1167684539999527,-0.93994140625,0.256103515625,0.022216796875,-4.885496183206107,-3.9083969465648853,11.419847328244275,21002,0,-9,-3.3225086100867145,10319.114318652868,-0.011826,False,,False,,,,,29
381.753,2.1187685779999583,-0.93994140625,0.256103515625,0.022216796875,-4.885496183206107,-3.9083969465648853,11.419847328244275,21002,0,-9,-3.3225086100867145,10319.114318652868,-0.011826,False,,False,,,,,29
381.753,2.1207694979999587,-0.93994140625,0.256103515625,0.022216796875,-4.885496183206107,-3.9083969465648853,11.419847328244275,21002,0,-9,-3.3225086100867145,10319.114318652868,-0.011826,False,,False,,,,,29
381.758,2.1227708989999883,-0.943359375,0.265869140625,0.022705078125,-5.557251908396946,-3.7557251908396947,11.114503816793892,21002,-4,-3,-3.3225086100867145,10545.298408582137,-0.003942,False,,False,,,,,29
381.758,2.1247721519999914,-0.943359375,0.265869140625,0.022705078125,-5.557251908396946,-3.7557251908396947,11.114503816793892,21002,-4,-3,-3.3225086100867145,10545.298408582137,-0.003942,False,,False,,,,,29
381.76300000000003,2.126775275,-0.936767578125,0.27197265625,0.0185546875,-6.045801526717557,-3.847328244274809,10.564885496183205,21004,0,-1,-3.3175647624304645,10741.93722919431,-0.001314,False,,False,,,,,29
381.76300000000003,2.1287755829999924,-0.936767578125,0.27197265625,0.0185546875,-6.045801526717557,-3.847328244274809,10.564885496183205,21004,0,-1,-3.3175647624304645,10741.93722919431,-0.001314,False,,False,,,,,29
381.76300000000003,2.1307779290000326,-0.936767578125,0.27197265625,0.0185546875,-6.045801526717557,-3.847328244274809,10.564885496183205,21004,0,-1,-3.3175647624304645,10741.93722919431,-0.001314,False,,False,,,,,29
381.76800000000003,2.132778626000004,-0.939453125,0.294921875,0.022705078125,-6.351145038167939,-3.6030534351145036,9.587786259541984,21002,0,-3,-3.3225086100867145,10910.990849221253,-0.003942,False,,False,,,,,29
381.76800000000003,2.134780212999999,-0.939453125,0.294921875,0.022705078125,-6.351145038167939,-3.6030534351145036,9.587786259541984,21002,0,-3,-3.3225086100867145,10910.990849221253,-0.003942,False,,False,,,,,29
381.773,2.1367846130000316,-0.934814453125,0.305419921875,0.02587890625,-6.290076335877862,-3.5114503816793894,8.793893129770993,21004,-3,0,-3.3175647624304645,11054.498030981415,0.0,False,,False,,,,,29
381.773,2.138783811000053,-0.934814453125,0.305419921875,0.02587890625,-6.290076335877862,-3.5114503816793894,8.793893129770993,21004,-3,0,-3.3175647624304645,11054.498030981415,0.0,False,,False,,,,,29
381.773,2.1407862679999425,-0.934814453125,0.305419921875,0.02587890625,-6.290076335877862,-3.5114503816793894,8.793893129770993,21004,-3,0,-3.3175647624304645,11054.498030981415,0.0,False,,False,,,,,29
381.778,2.1427881690000277,-0.94287109375,0.317138671875,0.03173828125,-6.290076335877862,-3.541984732824427,8.091603053435113,21005,0,-4,-3.3150928386023395,11174.544625652878,-0.005256,False,,False,,,,,29
381.778,2.144788976999962,-0.94287109375,0.317138671875,0.03173828125,-6.290076335877862,-3.541984732824427,8.091603053435113,21005,0,-4,-3.3150928386023395,11174.544625652878,-0.005256,False,,False,,,,,29
381.783,2.14679356299996,-0.9306640625,0.330810546875,0.03662109375,-5.862595419847328,-3.480916030534351,7.603053435114504,21005,2,3,-3.3150928386023395,11273.213155658743,0.003942,False,,False,,,,,29
381.783,2.1487924829999656,-0.9306640625,0.330810546875,0.03662109375,-5.862595419847328,-3.480916030534351,7.603053435114504,21005,2,3,-3.3150928386023395,11273.213155658743,0.003942,False,,False,,,,,29
381.783,2.150794162000011,-0.9306640625,0.330810546875,0.03662109375,-5.862595419847328,-3.480916030534351,7.603053435114504,21005,2,3,-3.3150928386023395,11273.213155658743,0.003942,False,,False,,,,,29
381.788,2.1527949329999956,-0.922607421875,0.3564453125,0.041015625,-4.824427480916031,-4.091603053435114,6.595419847328244,21005,1,1,-3.3150928386023395,11352.549606709797,0.001314,False,,False,,,,,29
381.788,2.154797185999996,-0.922607421875,0.3564453125,0.041015625,-4.824427480916031,-4.091603053435114,6.595419847328244,21005,1,1,-3.3150928386023395,11352.549606709797,0.001314,False,,False,,,,,29
381.793,2.1568001800000047,-0.9228515625,0.366455078125,0.043701171875,-4.122137404580153,-4.488549618320611,5.801526717557252,21006,5,-4,-3.3126209147742145,11414.552270546326,-0.005256,False,,False,,,,,29
381.793,2.158799210999973,-0.9228515625,0.366455078125,0.043701171875,-4.122137404580153,-4.488549618320611,5.801526717557252,21006,5,-4,-3.3126209147742145,11414.552270546326,-0.005256,False,,False,,,,,29
381.793,2.1608020749999923,-0.9228515625,0.366455078125,0.043701171875,-4.122137404580153,-4.488549618320611,5.801526717557252,21006,5,-4,-3.3126209147742145,11414.552270546326,-0.005256,False,,False,,,,,29
381.798,2.1628032170000324,-0.92431640625,0.37744140625,0.055419921875,-3.145038167938931,-4.580152671755725,5.587786259541985,21005,0,0,-3.3150928386023395,11461.145190174102,0.0,False,,False,,,,,29
381.798,2.1648045990000355,-0.92431640625,0.37744140625,0.055419921875,-3.145038167938931,-4.580152671755725,5.587786259541985,21005,0,0,-3.3150928386023395,11461.145190174102,0.0,False,,False,,,,,29
381.803,2.1668092219999835,-0.908935546875,0.376953125,0.048095703125,-2.1374045801526718,-5.251908396946565,5.007633587786259,21004,-7,0,-3.3175647624304645,11494.157004324292,0.0,False,,False,,,,,29
381.803,2.1688073090000444,-0.908935546875,0.376953125,0.048095703125,-2.1374045801526718,-5.251908396946565,5.007633587786259,21004,-7,0,-3.3175647624304645,11494.157004324292,0.0,False,,False,,,,,29
381.803,2.170809284000029,-0.908935546875,0.376953125,0.048095703125,-2.1374045801526718,-5.251908396946565,5.007633587786259,21004,-7,0,-3.3175647624304645,11494.157004324292,0.0,False,,False,,,,,29
381.808,2.1728098700000373,-0.907470703125,0.3896484375,0.04931640625,-0.8549618320610687,-5.709923664122138,3.7251908396946565,21006,8,-3,-3.3126209147742145,11515.322523560711,-0.003942,False,,False,,,,,29
381.808,2.1748112719999426,-0.907470703125,0.3896484375,0.04931640625,-0.8549618320610687,-5.709923664122138,3.7251908396946565,21006,8,-3,-3.3126209147742145,11515.322523560711,-0.003942,False,,False,,,,,29
381.813,2.176815875999978,-0.906982421875,0.396240234375,0.0458984375,0.7938931297709924,-5.679389312977099,3.3587786259541983,21006,5,-3,-3.3126209147742145,11526.271084997536,-0.003942,False,,False,,,,,29
381.813,2.1788141849999647,-0.906982421875,0.396240234375,0.0458984375,0.7938931297709924,-5.679389312977099,3.3587786259541983,21006,5,-3,-3.3126209147742145,11526.271084997536,-0.003942,False,,False,,,,,29
381.813,2.18081602999996,-0.906982421875,0.396240234375,0.0458984375,0.7938931297709924,-5.679389312977099,3.3587786259541983,21006,5,-3,-3.3126209147742145,11526.271084997536,-0.003942,False,,False,,,,,29
381.818,2.1828167459999577,-0.899658203125,0.396728515625,0.04052734375,1.9236641221374045,-6.1679389312977095,3.114503816793893,21005,0,1,-3.3150928386023395,11528.504007014262,0.001314,False,,False,,,,,29
381.818,2.1848177959999475,-0.899658203125,0.396728515625,0.04052734375,1.9236641221374045,-6.1679389312977095,3.114503816793893,21005,0,1,-3.3150928386023395,11528.504007014262,0.001314,False,,False,,,,,29
381.82300000000004,2.1868217700000514,-0.88623046875,0.396240234375,0.02880859375,2.5343511450381677,-6.625954198473282,2.6259541984732824,21004,-6,-3,-3.3175647624304645,11523.40084588283,-0.003942,False,,False,,,,,29
381.82300000000004,2.188821190999988,-0.88623046875,0.396240234375,0.02880859375,2.5343511450381677,-6.625954198473282,2.6259541984732824,21004,-6,-3,-3.3175647624304645,11523.40084588283,-0.003942,False,,False,,,,,29
381.82300000000004,2.1908230919999596,-0.88623046875,0.396240234375,0.02880859375,2.5343511450381677,-6.625954198473282,2.6259541984732824,21004,-6,-3,-3.3175647624304645,11523.40084588283,-0.003942,False,,False,,,,,29
381.82800000000003,2.1928232340000022,-0.883544921875,0.3955078125,0.0244140625,5.312977099236641,-6.412213740458015,2.045801526717557,21004,-3,-1,-3.3175647624304645,11512.229978644566,-0.001314,False,,False,,,,,29
381.82800000000003,2.194824134999976,-0.883544921875,0.3955078125,0.0244140625,5.312977099236641,-6.412213740458015,2.045801526717557,21004,-3,-1,-3.3175647624304645,11512.229978644566,-0.001314,False,,False,,,,,29
381.833,2.196828183999969,-0.878173828125,0.383544921875,0.015625,6.687022900763359,-6.8396946564885495,1.7404580152671756,21004,-2,3,-3.3175647624304645,11496.144749490768,0.003942,False,,False,,,,,29
381.833,2.198826955999948,-0.878173828125,0.383544921875,0.015625,6.687022900763359,-6.8396946564885495,1.7404580152671756,21004,-2,3,-3.3175647624304645,11496.144749490768,0.003942,False,,False,,,,,29
381.833,2.2008287270000437,-0.878173828125,0.383544921875,0.015625,6.687022900763359,-6.8396946564885495,1.7404580152671756,21004,-2,3,-3.3175647624304645,11496.144749490768,0.003942,False,,False,,,,,29
381.838,2.2028299060000336,-0.884521484375,0.383056640625,0.012939453125,7.511450381679389,-6.809160305343511,1.5877862595419847,21001,-7,-2,-3.3249805339148395,11476.174748014133,-0.002628,False,,False,,,,,29
381.838,2.2048314740000023,-0.884521484375,0.383056640625,0.012939453125,7.511450381679389,-6.809160305343511,1.5877862595419847,21001,-7,-2,-3.3249805339148395,11476.174748014133,-0.002628,False,,False,,,,,29
381.843,2.2068353370000295,-0.88671875,0.37451171875,-0.00390625,8.366412213740457,-6.564885496183206,1.7099236641221374,21000,-5,-5,-3.3274524577429645,11453.234624353645,-0.0065699999999999995,False,,False,,,,,29
381.843,2.2088353130000087,-0.88671875,0.37451171875,-0.00390625,8.366412213740457,-6.564885496183206,1.7099236641221374,21000,-5,-5,-3.3274524577429645,11453.234624353645,-0.0065699999999999995,False,,False,,,,,29
381.843,2.210836640000025,-0.88671875,0.37451171875,-0.00390625,8.366412213740457,-6.564885496183206,1.7099236641221374,21000,-5,-5,-3.3274524577429645,11453.234624353645,-0.0065699999999999995,False,,False,,,,,29
381.848,2.212837725999975,-0.909423828125,0.34912109375,-0.0234375,9.770992366412214,-5.709923664122138,1.5877862595419847,20999,-7,-6,-3.3299243815710895,11428.14208669026,-0.007884,False,,False,,,,,29
381.848,2.214838683000039,-0.909423828125,0.34912109375,-0.0234375,9.770992366412214,-5.709923664122138,1.5877862595419847,20999,-7,-6,-3.3299243815710895,11428.14208669026,-0.007884,False,,False,,,,,29
381.853,2.2168427870000187,-0.908447265625,0.337158203125,-0.0224609375,10.076335877862595,-5.587786259541985,1.5877862595419847,20997,-8,-1,-3.3348682292273395,11401.612886741183,-0.001314,False,,False,,,,,29
381.853,2.2188416699999607,-0.908447265625,0.337158203125,-0.0224609375,10.076335877862595,-5.587786259541985,1.5877862595419847,20997,-8,-1,-3.3348682292273395,11401.612886741183,-0.001314,False,,False,,,,,29
381.853,2.2208445710000433,-0.908447265625,0.337158203125,-0.0224609375,10.076335877862595,-5.587786259541985,1.5877862595419847,20997,-8,-1,-3.3348682292273395,11401.612886741183,-0.001314,False,,False,,,,,29
381.858,2.2228451390000146,-0.920654296875,0.315185546875,-0.022705078125,9.801526717557252,-5.740458015267175,1.3129770992366412,20996,-5,-1,-3.3373401530554645,11374.26347023555,-0.001314,False,,False,,,,,29
381.858,2.2248467069999833,-0.920654296875,0.315185546875,-0.022705078125,9.801526717557252,-5.740458015267175,1.3129770992366412,20996,-5,-1,-3.3373401530554645,11374.26347023555,-0.001314,False,,False,,,,,29
381.863,2.2268509589999894,-0.932861328125,0.30322265625,-0.023193359375,9.587786259541984,-5.312977099236641,1.129770992366412,20994,-10,0,-3.3422840007117145,11346.623586983524,0.0,False,,False,,,,,29
381.863,2.2288510460000452,-0.932861328125,0.30322265625,-0.023193359375,9.587786259541984,-5.312977099236641,1.129770992366412,20994,-10,0,-3.3422840007117145,11346.623586983524,0.0,False,,False,,,,,29
381.863,2.2308513360000006,-0.932861328125,0.30322265625,-0.023193359375,9.587786259541984,-5.312977099236641,1.129770992366412,20994,-10,0,-3.3422840007117145,11346.623586983524,0.0,False,,False,,,,,29
381.863,2.2328526259999535,-0.932861328125,0.30322265625,-0.023193359375,9.587786259541984,-5.312977099236641,1.129770992366412,20994,-10,0,-3.3422840007117145,11346.623586983524,0.0,False,,False,,,,,29
381.863,2.234855046000007,-0.932861328125,0.30322265625,-0.023193359375,9.587786259541984,-5.312977099236641,1.129770992366412,20994,-10,0,-3.3422840007117145,11346.623586983524,0.0,False,,False,,,,,29
381.863,2.2368580580000526,-0.932861328125,0.30322265625,-0.023193359375,9.587786259541984,-5.312977099236641,1.129770992366412,20994,-10,0,-3.3422840007117145,11346.623586983524,0.0,False,,False,,,,,29
381.873,2.2417631819999997,-0.94873046875,0.278076171875,-0.02294921875,8.458015267175572,-4.793893129770992,0.7022900763358778,20990,-14,-1,-3.3521716960242145,11299.1337601554,-0.001314,False,,False,,,,,29
381.873,2.243766396999945,-0.94873046875,0.278076171875,-0.02294921875,8.458015267175572,-4.793893129770992,0.7022900763358778,20990,-14,-1,-3.3521716960242145,11299.1337601554,-0.001314,False,,False,,,,,29
381.878,2.245767075999993,-0.95263671875,0.28466796875,-0.0244140625,6.809160305343511,-4.2748091603053435,1.1603053435114503,20991,6,6,-3.3496997721960895,11215.712086848569,0.007884,False,,False,,,,,29
381.883,2.2477684589999853,-0.96044921875,0.26611328125,-0.032470703125,5.068702290076335,-3.633587786259542,1.0381679389312977,20990,-5,6,-3.3521716960242145,11123.429990977867,0.007884,False,,False,,,,,29
381.883,2.249770840999986,-0.96044921875,0.26611328125,-0.032470703125,5.068702290076335,-3.633587786259542,1.0381679389312977,20990,-5,6,-3.3521716960242145,11123.429990977867,0.007884,False,,False,,,,,29
381.88800000000003,2.2517741489999707,-0.954833984375,0.29541015625,-0.034912109375,2.595419847328244,-2.3206106870229006,2.595419847328244,20990,2,-3,-3.3521716960242145,11045.072368415505,-0.003942,False,,False,,,,,29
381.88800000000003,2.2537724219999973,-0.954833984375,0.29541015625,-0.034912109375,2.595419847328244,-2.3206106870229006,2.595419847328244,20990,2,-3,-3.3521716960242145,11045.072368415505,-0.003942,False,,False,,,,,29
381.88800000000003,2.2557744519999687,-0.954833984375,0.29541015625,-0.034912109375,2.595419847328244,-2.3206106870229006,2.595419847328244,20990,2,-3,-3.3521716960242145,11045.072368415505,-0.003942,False,,False,,,,,29
381.89300000000003,2.257776872000022,-0.953857421875,0.27880859375,-0.033447265625,0.916030534351145,-0.9770992366412213,3.3587786259541983,20989,-3,-4,-3.3546436198523395,10979.50541431842,-0.005256,False,,False,,,,,29
381.89300000000003,2.2597768099999485,-0.953857421875,0.27880859375,-0.033447265625,0.916030534351145,-0.9770992366412213,3.3587786259541983,20989,-3,-4,-3.3546436198523395,10979.50541431842,-0.005256,False,,False,,,,,29
381.898,2.261780563000002,-0.989501953125,0.262451171875,-0.036865234375,3.7251908396946565,-1.9236641221374045,1.7404580152671756,20988,-6,0,-3.3571155436804645,10925.594633166625,0.0,False,,False,,,,,29
381.898,2.263779926999973,-0.989501953125,0.262451171875,-0.036865234375,3.7251908396946565,-1.9236641221374045,1.7404580152671756,20988,-6,0,-3.3571155436804645,10925.594633166625,0.0,False,,False,,,,,29
381.898,2.2657811249999895,-0.989501953125,0.262451171875,-0.036865234375,3.7251908396946565,-1.9236641221374045,1.7404580152671756,20988,-6,0,-3.3571155436804645,10925.594633166625,0.0,False,,False,,,,,29
381.903,2.2677845250000246,-0.968994140625,0.270751953125,-0.03173828125,3.145038167938931,-1.0687022900763359,3.1755725190839694,20988,-6,-3,-3.3571155436804645,10882.223176847161,-0.003942,False,,False,,,,,29
381.903,2.26978335299998,-0.968994140625,0.270751953125,-0.03173828125,3.145038167938931,-1.0687022900763359,3.1755725190839694,20988,-6,-3,-3.3571155436804645,10882.223176847161,-0.003942,False,,False,,,,,29
381.908,2.2717867540000043,-0.998779296875,0.240234375,-0.031005859375,2.564885496183206,-1.0687022900763359,1.282442748091603,20988,-1,-4,-3.3571155436804645,10848.306941308796,-0.005256,False,,False,,,,,29
381.908,2.273786229000052,-0.998779296875,0.240234375,-0.031005859375,2.564885496183206,-1.0687022900763359,1.282442748091603,20988,-1,-4,-3.3571155436804645,10848.306941308796,-0.005256,False,,False,,,,,29
381.908,2.275788018999947,-0.998779296875,0.240234375,-0.031005859375,2.564885496183206,-1.0687022900763359,1.282442748091603,20988,-1,-4,-3.3571155436804645,10848.306941308796,-0.005256,False,,False,,,,,29
381.913,2.2777891980000504,-1.00048828125,0.256591796875,-0.017578125,1.3740458015267174,-0.3053435114503817,1.1908396946564885,20986,-6,-3,-3.3620593913367145,10822.795987825997,-0.003942,False,,False,,,,,29
381.913,2.2797909140000456,-1.00048828125,0.256591796875,-0.017578125,1.3740458015267174,-0.3053435114503817,1.1908396946564885,20986,-6,-3,-3.3620593913367145,10822.795987825997,-0.003942,False,,False,,,,,29
381.918,2.2817935919999854,-0.994873046875,0.254638671875,-0.01123046875,0.6106870229007634,0.3053435114503817,1.0076335877862594,20986,-3,0,-3.3620593913367145,10804.687771440043,0.0,False,,False,,,,,29
381.918,2.283792974999983,-0.994873046875,0.254638671875,-0.01123046875,0.6106870229007634,0.3053435114503817,1.0076335877862594,20986,-3,0,-3.3620593913367145,10804.687771440043,0.0,False,,False,,,,,29
381.918,2.285794340000052,-0.994873046875,0.254638671875,-0.01123046875,0.6106870229007634,0.3053435114503817,1.0076335877862594,20986,-3,0,-3.3620593913367145,10804.687771440043,0.0,False,,False,,,,,29
381.923,2.2877987030000213,-0.980712890625,0.260498046875,-0.00537109375,0.030534351145038167,0.6717557251908397,0.8244274809160305,20986,0,0,-3.3620593913367145,10793.04290049919,0.0,False,,False,,,,,29
381.923,2.2897973640000373,-0.980712890625,0.260498046875,-0.00537109375,0.030534351145038167,0.6717557251908397,0.8244274809160305,20986,0,0,-3.3620593913367145,10793.04290049919,0.0,False,,False,,,,,29
381.928,2.291802283000038,-0.97412109375,0.28564453125,0.005859375,-1.3435114503816794,1.7709923664122136,0.8549618320610687,20986,-1,0,-3.3620593913367145,10786.981300834357,0.0,False,,False,,,,,29
381.928,2.2938000179999563,-0.97412109375,0.28564453125,0.005859375,-1.3435114503816794,1.7709923664122136,0.8549618320610687,20986,-1,0,-3.3620593913367145,10786.981300834357,0.0,False,,False,,,,,29
381.928,2.295802807999962,-0.97412109375,0.28564453125,0.005859375,-1.3435114503816794,1.7709923664122136,0.8549618320610687,20986,-1,0,-3.3620593913367145,10786.981300834357,0.0,False,,False,,,,,29
381.933,2.297805024000013,-0.957275390625,0.296875,0.006103515625,-1.648854961832061,1.5877862595419847,0.8244274809160305,20986,-5,2,-3.3620593913367145,10785.681726169623,0.002628,False,,False,,,,,29
381.933,2.299804109999968,-0.957275390625,0.296875,0.006103515625,-1.648854961832061,1.5877862595419847,0.8244274809160305,20986,-5,2,-3.3620593913367145,10785.681726169623,0.002628,False,,False,,,,,29
381.938,2.301808215000051,-0.961181640625,0.310546875,0.00830078125,-1.5572519083969465,1.984732824427481,0.9465648854961831,20987,-5,-6,-3.3595874675085895,10788.389448544121,-0.007884,False,,False,,,,,29
381.938,2.3038068939999903,-0.961181640625,0.310546875,0.00830078125,-1.5572519083969465,1.984732824427481,0.9465648854961831,20987,-5,-6,-3.3595874675085895,10788.389448544121,-0.007884,False,,False,,,,,29
381.938,2.305808516999946,-0.961181640625,0.310546875,0.00830078125,-1.5572519083969465,1.984732824427481,0.9465648854961831,20987,-5,-6,-3.3595874675085895,10788.389448544121,-0.007884,False,,False,,,,,29
381.943,2.3078104369999437,-0.94677734375,0.316162109375,0.006103515625,-1.5572519083969465,1.83206106870229,0.916030534351145,20985,-11,-4,-3.3645313151648395,10794.410989934544,-0.005256,False,,False,,,,,29
381.943,2.309811022999952,-0.94677734375,0.316162109375,0.006103515625,-1.5572519083969465,1.83206106870229,0.916030534351145,20985,-11,-4,-3.3645313151648395,10794.410989934544,-0.005256,False,,False,,,,,29
381.94800000000004,2.3118155350000507,-0.935791015625,0.325927734375,0.007080078125,-1.282442748091603,1.984732824427481,1.2519083969465647,20987,-1,-5,-3.3595874675085895,10803.11777687548,-0.0065699999999999995,False,,False,,,,,29
381.94800000000004,2.313814676999982,-0.935791015625,0.325927734375,0.007080078125,-1.282442748091603,1.984732824427481,1.2519083969465647,20987,-1,-5,-3.3595874675085895,10803.11777687548,-0.0065699999999999995,False,,False,,,,,29
381.94800000000004,2.3158171520000224,-0.935791015625,0.325927734375,0.007080078125,-1.282442748091603,1.984732824427481,1.2519083969465647,20987,-1,-5,-3.3595874675085895,10803.11777687548,-0.0065699999999999995,False,,False,,,,,29
381.95300000000003,2.3178196640000124,-0.944091796875,0.328857421875,0.01123046875,-1.099236641221374,2.16793893129771,1.3435114503816794,20985,-4,-4,-3.3645313151648395,10813.948259786863,-0.005256,False,,False,,,,,29
381.95300000000003,2.319819157999973,-0.944091796875,0.328857421875,0.01123046875,-1.099236641221374,2.16793893129771,1.3435114503816794,20985,-4,-4,-3.3645313151648395,10813.948259786863,-0.005256,False,,False,,,,,29
381.958,2.321822189000045,-0.934326171875,0.32421875,0.00732421875,-0.916030534351145,2.229007633587786,1.465648854961832,20986,3,-5,-3.3620593913367145,10826.397973254805,-0.0065699999999999995,False,,False,,,,,29
381.958,2.3238227750000533,-0.934326171875,0.32421875,0.00732421875,-0.916030534351145,2.229007633587786,1.465648854961832,20986,3,-5,-3.3620593913367145,10826.397973254805,-0.0065699999999999995,False,,False,,,,,29
381.958,2.325824046999969,-0.934326171875,0.32421875,0.00732421875,-0.916030534351145,2.229007633587786,1.465648854961832,20986,3,-5,-3.3620593913367145,10826.397973254805,-0.0065699999999999995,False,,False,,,,,29
381.963,2.327825114999996,-0.933837890625,0.319091796875,0.0048828125,-0.9465648854961831,2.381679389312977,1.5267175572519083,20986,-5,1,-3.3620593913367145,10840.02471174994,0.001314,False,,False,,,,,29
381.963,2.3298261459999594,-0.933837890625,0.319091796875,0.0048828125,-0.9465648854961831,2.381679389312977,1.5267175572519083,20986,-5,1,-3.3620593913367145,10840.02471174994,0.001314,False,,False,,,,,29
381.968,2.3318298240000104,-0.9375,0.321044921875,-0.000244140625,-1.0687022900763359,2.900763358778626,1.7404580152671756,20986,1,6,-3.3620593913367145,10854.441217677411,0.007884,False,,False,,,,,29
381.968,2.3338287630000423,-0.9375,0.321044921875,-0.000244140625,-1.0687022900763359,2.900763358778626,1.7404580152671756,20986,1,6,-3.3620593913367145,10854.441217677411,0.007884,False,,False,,,,,29
381.968,2.3358311819999926,-0.9375,0.321044921875,-0.000244140625,-1.0687022900763359,2.900763358778626,1.7404580152671756,20986,1,6,-3.3620593913367145,10854.441217677411,0.007884,False,,False,,,,,29
381.973,2.3378330460000143,-0.938232421875,0.322998046875,0.00146484375,-0.7633587786259541,3.297709923664122,1.8015267175572518,20987,3,3,-3.3595874675085895,10869.310054435886,0.003942,False,,False,,,,,29
381.973,2.339833743999975,-0.938232421875,0.322998046875,0.00146484375,-0.7633587786259541,3.297709923664122,1.8015267175572518,20987,3,3,-3.3595874675085895,10869.310054435886,0.003942,False,,False,,,,,29
381.978,2.341837921999968,-0.941162109375,0.318115234375,0.00146484375,-0.24427480916030533,3.541984732824427,2.2900763358778624,20985,-1,0,-3.3645313151648395,10884.340382997258,0.0,False,,False,,,,,29
381.978,2.3438359719999653,-0.941162109375,0.318115234375,0.00146484375,-0.24427480916030533,3.541984732824427,2.2900763358778624,20985,-1,0,-3.3645313151648395,10884.340382997258,0.0,False,,False,,,,,29
381.978,2.345838427999979,-0.941162109375,0.318115234375,0.00146484375,-0.24427480916030533,3.541984732824427,2.2900763358778624,20985,-1,0,-3.3645313151648395,10884.340382997258,0.0,False,,False,,,,,29
381.983,2.3478400330000113,-0.9326171875,0.31640625,-0.008056640625,-0.916030534351145,3.2671755725190836,2.3206106870229006,20987,2,-3,-3.3595874675085895,10899.286378776224,-0.003942,False,,False,,,,,29
381.983,2.349841322999964,-0.9326171875,0.31640625,-0.008056640625,-0.916030534351145,3.2671755725190836,2.3206106870229006,20987,2,-3,-3.3595874675085895,10899.286378776224,-0.003942,False,,False,,,,,29
381.988,2.351846020000039,-0.938720703125,0.324951171875,-0.009765625,-0.9770992366412213,3.9083969465648853,2.229007633587786,20987,7,0,-3.3595874675085895,10913.950625663121,0.0,False,,False,,,,,29
381.988,2.3538447729999916,-0.938720703125,0.324951171875,-0.009765625,-0.9770992366412213,3.9083969465648853,2.229007633587786,20987,7,0,-3.3595874675085895,10913.950625663121,0.0,False,,False,,,,,29
381.988,2.3558468600000424,-0.938720703125,0.324951171875,-0.009765625,-0.9770992366412213,3.9083969465648853,2.229007633587786,20987,7,0,-3.3595874675085895,10913.950625663121,0.0,False,,False,,,,,29
381.993,2.357849741999985,-0.94580078125,0.326171875,-0.0078125,-0.6717557251908397,4.030534351145038,2.381679389312977,20986,1,0,-3.3620593913367145,10928.164770115625,0.0,False,,False,,,,,29
381.993,2.359849551000025,-0.94580078125,0.326171875,-0.0078125,-0.6717557251908397,4.030534351145038,2.381679389312977,20986,1,0,-3.3620593913367145,10928.164770115625,0.0,False,,False,,,,,29
381.998,2.3618532479999885,-0.94384765625,0.327880859375,-0.010498046875,-0.3969465648854962,3.8167938931297707,2.778625954198473,20984,-3,0,-3.3670032389929645,10941.787228131177,0.0,False,,False,,,,,29
381.998,2.363853038000002,-0.94384765625,0.327880859375,-0.010498046875,-0.3969465648854962,3.8167938931297707,2.778625954198473,20984,-3,0,-3.3670032389929645,10941.787228131177,0.0,False,,False,,,,,29
381.998,2.3658544209999945,-0.94384765625,0.327880859375,-0.010498046875,-0.3969465648854962,3.8167938931297707,2.778625954198473,20984,-3,0,-3.3670032389929645,10941.787228131177,0.0,False,,False,,,,,29
382.003,2.3678564330000427,-0.945556640625,0.327392578125,-0.0126953125,-0.916030534351145,3.3587786259541983,2.9618320610687023,20985,0,-3,-3.3645313151648395,10954.716992300888,-0.003942,False,,False,,,,,29
382.003,2.3698577410000325,-0.945556640625,0.327392578125,-0.0126953125,-0.916030534351145,3.3587786259541983,2.9618320610687023,20985,0,-3,-3.3645313151648395,10954.716992300888,-0.003942,False,,False,,,,,29
382.008,2.3718616229999725,-0.947021484375,0.3349609375,-0.01904296875,-1.1908396946564885,2.931297709923664,3.2061068702290076,20984,-1,1,-3.3670032389929645,10966.884907453876,0.001314,False,,False,,,,,29
382.008,2.3738633210000444,-0.947021484375,0.3349609375,-0.01904296875,-1.1908396946564885,2.931297709923664,3.2061068702290076,20984,-1,1,-3.3670032389929645,10966.884907453876,0.001314,False,,False,,,,,29
382.01300000000003,2.3758629080000446,-0.9541015625,0.347412109375,-0.014892578125,-0.916030534351145,2.687022900763359,2.9618320610687023,20984,3,-1,-3.3670032389929645,10978.238743335045,-0.001314,False,,False,,,,,29
382.01300000000003,2.3778638640000054,-0.9541015625,0.347412109375,-0.014892578125,-0.916030534351145,2.687022900763359,2.9618320610687023,20984,3,-1,-3.3670032389929645,10978.238743335045,-0.001314,False,,False,,,,,29
382.01300000000003,2.3798660429999927,-0.9541015625,0.347412109375,-0.014892578125,-0.916030534351145,2.687022900763359,2.9618320610687023,20984,3,-1,-3.3670032389929645,10978.238743335045,-0.001314,False,,False,,,,,29
382.01800000000003,2.3818687220000356,-0.950439453125,0.349853515625,-0.009765625,-0.42748091603053434,2.778625954198473,3.0229007633587783,20985,4,-3,-3.3645313151648395,10988.748357580755,-0.003942,False,,False,,,,,29
382.01800000000003,2.38386936400002,-0.950439453125,0.349853515625,-0.009765625,-0.42748091603053434,2.778625954198473,3.0229007633587783,20985,4,-3,-3.3645313151648395,10988.748357580755,-0.003942,False,,False,,,,,29
382.01800000000003,2.3858708389999492,-0.950439453125,0.349853515625,-0.009765625,-0.42748091603053434,2.778625954198473,3.0229007633587783,20985,4,-3,-3.3645313151648395,10988.748357580755,-0.003942,False,,False,,,,,29
382.023,2.3878717589999496,-0.94873046875,0.348876953125,-0.01220703125,-0.24427480916030533,2.6564885496183206,3.236641221374046,20984,0,-7,-3.3670032389929645,10998.400745565712,-0.009198,False,,False,,,,,29
382.023,2.389873677999958,-0.94873046875,0.348876953125,-0.01220703125,-0.24427480916030533,2.6564885496183206,3.236641221374046,20984,0,-7,-3.3670032389929645,10998.400745565712,-0.009198,False,,False,,,,,29
382.028,2.391875671999969,-0.94140625,0.339111328125,-0.01220703125,-0.030534351145038167,2.595419847328244,3.5114503816793894,20983,-4,-8,-3.3694751628210895,11007.190276441586,-0.010512,False,,False,,,,,29
382.028,2.393876295000041,-0.94140625,0.339111328125,-0.01220703125,-0.030534351145038167,2.595419847328244,3.5114503816793894,20983,-4,-8,-3.3694751628210895,11007.190276441586,-0.010512,False,,False,,,,,29
382.028,2.395877566999957,-0.94140625,0.339111328125,-0.01220703125,-0.030534351145038167,2.595419847328244,3.5114503816793894,20983,-4,-8,-3.3694751628210895,11007.190276441586,-0.010512,False,,False,,,,,29
382.033,2.397879282999952,-0.93798828125,0.334228515625,-0.01513671875,0.3053435114503817,2.3206106870229006,3.4198473282442747,20983,-2,-7,-3.3694751628210895,11015.128317147924,-0.009198,False,,False,,,,,29
382.033,2.3998800169999868,-0.93798828125,0.334228515625,-0.01513671875,0.3053435114503817,2.3206106870229006,3.4198473282442747,20983,-2,-7,-3.3694751628210895,11015.128317147924,-0.009198,False,,False,,,,,29
382.038,2.4018815480000058,-0.936767578125,0.33447265625,-0.0126953125,0.24427480916030533,2.1068702290076335,3.145038167938931,20983,0,-9,-3.3694751628210895,11022.242090695272,-0.011826,False,,False,,,,,29
382.038,2.403882875000022,-0.936767578125,0.33447265625,-0.0126953125,0.24427480916030533,2.1068702290076335,3.145038167938931,20983,0,-9,-3.3694751628210895,11022.242090695272,-0.011826,False,,False,,,,,29
382.043,2.4058852939999724,-0.93505859375,0.3271484375,-0.010009765625,0.5801526717557252,2.381679389312977,3.1755725190839694,20983,0,-1,-3.3694751628210895,11028.564538116918,-0.001314,False,,False,,,,,29
382.043,2.4078854919999912,-0.93505859375,0.3271484375,-0.010009765625,0.5801526717557252,2.381679389312977,3.1755725190839694,20983,0,-1,-3.3694751628210895,11028.564538116918,-0.001314,False,,False,,,,,29
382.043,2.409887356000013,-0.93505859375,0.3271484375,-0.010009765625,0.5801526717557252,2.381679389312977,3.1755725190839694,20983,0,-1,-3.3694751628210895,11028.564538116918,-0.001314,False,,False,,,,,29
382.048,2.411889182999971,-0.93017578125,0.322265625,-0.010009765625,0.8244274809160305,2.9923664122137406,2.778625954198473,20983,1,4,-3.3694751628210895,11034.132910262142,0.005256,False,,False,,,,,29
382.048,2.413889954999945,-0.93017578125,0.322265625,-0.010009765625,0.8244274809160305,2.9923664122137406,2.778625954198473,20983,1,4,-3.3694751628210895,11034.132910262142,0.005256,False,,False,,,,,29
382.053,2.4158916889999773,-0.926025390625,0.32470703125,-0.010498046875,0.9465648854961831,3.114503816793893,2.5343511450381677,20983,2,-7,-3.3694751628210895,11038.989316940415,-0.009198,False,,False,,,,,29
382.053,2.417892682999991,-0.926025390625,0.32470703125,-0.010498046875,0.9465648854961831,3.114503816793893,2.5343511450381677,20983,2,-7,-3.3694751628210895,11038.989316940415,-0.009198,False,,False,,,,,29
382.053,2.4198944729999994,-0.926025390625,0.32470703125,-0.010498046875,0.9465648854961831,3.114503816793893,2.5343511450381677,20983,2,-7,-3.3694751628210895,11038.989316940415,-0.009198,False,,False,,,,,29
382.058,2.4218963179999946,-0.923828125,0.320556640625,-0.01025390625,1.1603053435114503,3.0534351145038165,2.5038167938931295,20982,2,0,-3.3719470866492145,11043.177535256076,0.0,False,,False,,,,,29
382.058,2.4238991820000138,-0.923828125,0.320556640625,-0.01025390625,1.1603053435114503,3.0534351145038165,2.5038167938931295,20982,2,0,-3.3719470866492145,11043.177535256076,0.0,False,,False,,,,,29
382.063,2.4259000829999877,-0.92578125,0.322998046875,-0.0126953125,1.099236641221374,3.2671755725190836,2.1374045801526718,20982,0,2,-3.3719470866492145,11046.743894459392,0.002628,False,,False,,,,,29
382.063,2.4279007249999722,-0.92578125,0.322998046875,-0.0126953125,1.099236641221374,3.2671755725190836,2.1374045801526718,20982,0,2,-3.3719470866492145,11046.743894459392,0.002628,False,,False,,,,,29
382.063,2.4299029600000495,-0.92578125,0.322998046875,-0.0126953125,1.099236641221374,3.2671755725190836,2.1374045801526718,20982,0,2,-3.3719470866492145,11046.743894459392,0.002628,False,,False,,,,,29
382.068,2.4319044530000156,-0.924560546875,0.325927734375,-0.0068359375,1.4045801526717556,3.541984732824427,1.9541984732824427,20981,-5,-2,-3.3744190104773395,11049.737979755375,-0.002628,False,,False,,,,,29
382.068,2.4339066689999527,-0.924560546875,0.325927734375,-0.0068359375,1.4045801526717556,3.541984732824427,1.9541984732824427,20981,-5,-2,-3.3744190104773395,11049.737979755375,-0.002628,False,,False,,,,,29
382.07300000000004,2.4359073849999504,-0.923095703125,0.324951171875,-0.01171875,1.5267175572519083,3.7557251908396947,1.8625954198473282,20981,0,-2,-3.3744190104773395,11052.20959334271,-0.002628,False,,False,,,,,29
382.07300000000004,2.437908675000017,-0.923095703125,0.324951171875,-0.01171875,1.5267175572519083,3.7557251908396947,1.8625954198473282,20981,0,-2,-3.3744190104773395,11052.20959334271,-0.002628,False,,False,,,,,29
382.07300000000004,2.4399101870000095,-0.923095703125,0.324951171875,-0.01171875,1.5267175572519083,3.7557251908396947,1.8625954198473282,20981,0,-2,-3.3744190104773395,11052.20959334271,-0.002628,False,,False,,,,,29
382.07800000000003,2.441913236000005,-0.921875,0.321044921875,-0.00830078125,1.648854961832061,3.66412213740458,1.6793893129770991,20981,1,-4,-3.3744190104773395,11054.20978811701,-0.005256,False,,False,,,,,29
382.07800000000003,2.443913027000008,-0.921875,0.321044921875,-0.00830078125,1.648854961832061,3.66412213740458,1.6793893129770991,20981,1,-4,-3.3744190104773395,11054.20978811701,-0.005256,False,,False,,,,,29
382.083,2.4459162609999794,-0.927001953125,0.3271484375,-0.008056640625,1.6793893129770991,3.6030534351145036,1.648854961832061,20981,-2,-3,-3.3744190104773395,11055.788133941845,-0.003942,False,,False,,,,,29
382.083,2.4479162919999453,-0.927001953125,0.3271484375,-0.008056640625,1.6793893129770991,3.6030534351145036,1.648854961832061,20981,-2,-3,-3.3744190104773395,11055.788133941845,-0.003942,False,,False,,,,,29
382.083,2.449918747999959,-0.927001953125,0.3271484375,-0.008056640625,1.6793893129770991,3.6030534351145036,1.648854961832061,20981,-2,-3,-3.3744190104773395,11055.788133941845,-0.003942,False,,False,,,,,29
382.088,2.4519206490000442,-0.927001953125,0.327880859375,-0.00390625,1.9541984732824427,3.145038167938931,1.465648854961832,20982,1,0,-3.3719470866492145,11056.992241007616,0.0,False,,False,,,,,29
382.088,2.453924327999971,-0.927001953125,0.327880859375,-0.00390625,1.9541984732824427,3.145038167938931,1.465648854961832,20982,1,0,-3.3719470866492145,11056.992241007616,0.0,False,,False,,,,,29
382.093,2.455923506999966,-0.92724609375,0.33349609375,-0.001220703125,1.6793893129770991,3.145038167938931,1.2213740458015268,20981,0,-1,-3.3744190104773395,11057.865598681896,-0.001314,False,,False,,,,,29
382.093,2.4579252969999743,-0.92724609375,0.33349609375,-0.001220703125,1.6793893129770991,3.145038167938931,1.2213740458015268,20981,0,-1,-3.3744190104773395,11057.865598681896,-0.001314,False,,False,,,,,29
382.093,2.459927568000012,-0.92724609375,0.33349609375,-0.001220703125,1.6793893129770991,3.145038167938931,1.2213740458015268,20981,0,-1,-3.3744190104773395,11057.865598681896,-0.001314,False,,False,,,,,29
382.098,2.461929005999991,-0.924560546875,0.34375,0.00341796875,1.8931297709923662,2.931297709923664,0.9770992366412213,20982,1,-4,-3.3719470866492145,11058.44761643691,-0.005256,False,,False,,,,,29
382.098,2.463929667000002,-0.924560546875,0.34375,0.00341796875,1.8931297709923662,2.931297709923664,0.9770992366412213,20982,1,-4,-3.3719470866492145,11058.44761643691,-0.005256,False,,False,,,,,29
382.098,2.4659323270000186,-0.924560546875,0.34375,0.00341796875,1.8931297709923662,2.931297709923664,0.9770992366412213,20982,1,-4,-3.3719470866492145,11058.44761643691,-0.005256,False,,False,,,,,29
382.103,2.4679323399999475,-0.926513671875,0.34716796875,0.0068359375,2.16793893129771,2.778625954198473,1.0381679389312977,20982,3,-4,-3.3719470866492145,11058.779088729623,-0.005256,False,,False,,,,,29
382.103,2.469934093000006,-0.926513671875,0.34716796875,0.0068359375,2.16793893129771,2.778625954198473,1.0381679389312977,20982,3,-4,-3.3719470866492145,11058.779088729623,-0.005256,False,,False,,,,,29
382.108,2.471936178999954,-0.923583984375,0.34912109375,0.00830078125,2.8396946564885495,1.83206106870229,1.129770992366412,20982,1,-1,-3.3719470866492145,11058.896007010195,-0.001314,False,,False,,,,,29
382.108,2.473937431999957,-0.923583984375,0.34912109375,0.00830078125,2.8396946564885495,1.83206106870229,1.129770992366412,20982,1,-1,-3.3719470866492145,11058.896007010195,-0.001314,False,,False,,,,,29
382.113,2.4759385370000473,-0.92041015625,0.347900390625,0.005126953125,2.687022900763359,1.3129770992366412,0.9465648854961831,20982,4,1,-3.3719470866492145,11058.82982034133,0.001314,False,,False,,,,,29
382.113,2.47794017800004,-0.92041015625,0.347900390625,0.005126953125,2.687022900763359,1.3129770992366412,0.9465648854961831,20982,4,1,-3.3719470866492145,11058.82982034133,0.001314,False,,False,,,,,29
382.113,2.4799420609999743,-0.92041015625,0.347900390625,0.005126953125,2.687022900763359,1.3129770992366412,0.9465648854961831,20982,4,1,-3.3719470866492145,11058.82982034133,0.001314,False,,False,,,,,29
382.118,2.481944387999988,-0.927490234375,0.34814453125,0.0087890625,2.8702290076335877,1.2519083969465647,0.6106870229007634,20982,-1,5,-3.3719470866492145,11058.611300396684,0.0065699999999999995,False,,False,,,,,29
382.118,2.483944899999983,-0.927490234375,0.34814453125,0.0087890625,2.8702290076335877,1.2519083969465647,0.6106870229007634,20982,-1,5,-3.3719470866492145,11058.611300396684,0.0065699999999999995,False,,False,,,,,29
382.123,2.4859465230000524,-0.927490234375,0.352294921875,0.0078125,3.480916030534351,1.099236641221374,0.549618320610687,20982,-5,0,-3.3719470866492145,11058.268415467253,0.0,False,,False,,,,,29
382.123,2.487948127999971,-0.927490234375,0.352294921875,0.0078125,3.480916030534351,1.099236641221374,0.549618320610687,20982,-5,0,-3.3719470866492145,11058.268415467253,0.0,False,,False,,,,,29
382.123,2.4899496960000533,-0.927490234375,0.352294921875,0.0078125,3.480916030534351,1.099236641221374,0.549618320610687,20982,-5,0,-3.3719470866492145,11058.268415467253,0.0,False,,False,,,,,29
382.128,2.491951837999977,-0.9326171875,0.35107421875,0.0107421875,4.396946564885496,0.732824427480916,0.33587786259541985,20982,0,3,-3.3719470866492145,11057.826381734547,0.003942,False,,False,,,,,29
382.128,2.4939527200000384,-0.9326171875,0.35107421875,0.0107421875,4.396946564885496,0.732824427480916,0.33587786259541985,20982,0,3,-3.3719470866492145,11057.826381734547,0.003942,False,,False,,,,,29
382.133,2.495955343999981,-0.92138671875,0.345458984375,0.002197265625,4.519083969465648,0.183206106870229,-0.12213740458015267,20982,3,2,-3.3719470866492145,11057.307746064589,0.002628,False,,False,,,,,29
382.133,2.497956097000042,-0.92138671875,0.345458984375,0.002197265625,4.519083969465648,0.183206106870229,-0.12213740458015267,20982,3,2,-3.3719470866492145,11057.307746064589,0.002628,False,,False,,,,,29
382.133,2.4999577569999474,-0.92138671875,0.345458984375,0.002197265625,4.519083969465648,0.183206106870229,-0.12213740458015267,20982,3,2,-3.3719470866492145,11057.307746064589,0.002628,False,,False,,,,,29
382.13800000000003,2.501958750999961,-0.938720703125,0.349853515625,0.005615234375,4.763358778625954,0.061068702290076333,-0.3053435114503817,20982,5,6,-3.3719470866492145,11056.732493990734,0.007884,False,,False,,,,,29
382.13800000000003,2.5039596889999984,-0.938720703125,0.349853515625,0.005615234375,4.763358778625954,0.061068702290076333,-0.3053435114503817,20982,5,6,-3.3719470866492145,11056.732493990734,0.007884,False,,False,,,,,29
382.14300000000003,2.5059612380000544,-0.931884765625,0.35107421875,0.007080078125,5.312977099236641,0.24427480916030533,-0.48854961832061067,20981,2,-3,-3.3744190104773395,11056.116386716963,-0.003942,False,,False,,,,,29
382.14300000000003,2.507963010000026,-0.931884765625,0.35107421875,0.007080078125,5.312977099236641,0.24427480916030533,-0.48854961832061067,20981,2,-3,-3.3744190104773395,11056.116386716963,-0.003942,False,,False,,,,,29
382.14300000000003,2.509964466000042,-0.931884765625,0.35107421875,0.007080078125,5.312977099236641,0.24427480916030533,-0.48854961832061067,20981,2,-3,-3.3744190104773395,11056.116386716963,-0.003942,False,,False,,,,,29
382.148,2.5119658859999845,-0.94287109375,0.33837890625,-0.000732421875,6.076335877862595,0.061068702290076333,-0.6106870229007634,20981,-4,4,-3.3744190104773395,11055.473211093053,0.005256,False,,False,,,,,29
382.148,2.5139672320000273,-0.94287109375,0.33837890625,-0.000732421875,6.076335877862595,0.061068702290076333,-0.6106870229007634,20981,-4,4,-3.3744190104773395,11055.473211093053,0.005256,False,,False,,,,,29
382.153,2.5159690210000463,-0.937744140625,0.3349609375,-0.0078125,5.83206106870229,-0.24427480916030533,-1.099236641221374,20981,2,10,-3.3744190104773395,11054.818482356766,0.013139999999999999,False,,False,,,,,29
382.153,2.5179703300000256,-0.937744140625,0.3349609375,-0.0078125,5.83206106870229,-0.24427480916030533,-1.099236641221374,20981,2,10,-3.3744190104773395,11054.818482356766,0.013139999999999999,False,,False,,,,,29
382.153,2.5199718049999547,-0.937744140625,0.3349609375,-0.0078125,5.83206106870229,-0.24427480916030533,-1.099236641221374,20981,2,10,-3.3744190104773395,11054.818482356766,0.013139999999999999,False,,False,,,,,29
382.158,2.5219737249999525,-0.95166015625,0.3447265625,0.000732421875,6.259541984732824,0.366412213740458,-1.0381679389312977,20981,5,2,-3.3744190104773395,11054.165356946796,0.002628,False,,False,,,,,29
382.158,2.523975254999982,-0.95166015625,0.3447265625,0.000732421875,6.259541984732824,0.366412213740458,-1.0381679389312977,20981,5,2,-3.3744190104773395,11054.165356946796,0.002628,False,,False,,,,,29
382.163,2.5259773970000197,-0.947021484375,0.333251953125,0.0009765625,6.870229007633587,0.33587786259541985,-1.129770992366412,20978,-5,0,-3.3818347819617145,11053.517663948596,0.0,False,,False,,,,,29
382.163,2.5279785579999725,-0.947021484375,0.333251953125,0.0009765625,6.870229007633587,0.33587786259541985,-1.129770992366412,20978,-5,0,-3.3818347819617145,11053.517663948596,0.0,False,,False,,,,,29
382.163,2.529980255000055,-0.947021484375,0.333251953125,0.0009765625,6.870229007633587,0.33587786259541985,-1.129770992366412,20978,-5,0,-3.3818347819617145,11053.517663948596,0.0,False,,False,,,,,29
382.168,2.531981377999955,-0.94384765625,0.3291015625,-0.011962890625,6.65648854961832,0.12213740458015267,-1.099236641221374,20979,-1,0,-3.3793628581335895,11052.880320808554,0.0,False,,False,,,,,29
382.168,2.5339854640000112,-0.94384765625,0.3291015625,-0.011962890625,6.65648854961832,0.12213740458015267,-1.099236641221374,20979,-1,0,-3.3793628581335895,11052.880320808554,0.0,False,,False,,,,,29
382.173,2.5359856799999534,-0.946533203125,0.328369140625,-0.007568359375,7.480916030534351,0.3969465648854962,-1.099236641221374,20978,0,-7,-3.3818347819617145,11052.266246907828,-0.009198,False,,False,,,,,29
382.173,2.537986210999975,-0.946533203125,0.328369140625,-0.007568359375,7.480916030534351,0.3969465648854962,-1.099236641221374,20978,0,-7,-3.3818347819617145,11052.266246907828,-0.009198,False,,False,,,,,29
382.173,2.5399879459999966,-0.946533203125,0.328369140625,-0.007568359375,7.480916030534351,0.3969465648854962,-1.099236641221374,20978,0,-7,-3.3818347819617145,11052.266246907828,-0.009198,False,,False,,,,,29
382.178,2.5419904020000104,-0.947021484375,0.316162109375,-0.005126953125,7.694656488549618,-0.24427480916030533,-0.8244274809160305,20978,-1,-3,-3.3818347819617145,11051.682340011843,-0.003942,False,,False,,,,,29
382.178,2.5439912479999975,-0.947021484375,0.316162109375,-0.005126953125,7.694656488549618,-0.24427480916030533,-0.8244274809160305,20978,-1,-3,-3.3818347819617145,11051.682340011843,-0.003942,False,,False,,,,,29
382.183,2.5459933710000087,-0.947021484375,0.305419921875,-0.01025390625,7.206106870229007,-0.183206106870229,-0.8549618320610687,20976,-10,7,-3.3867786296179645,11051.128566269617,0.009198,False,,False,,,,,29
382.183,2.5479934019999746,-0.947021484375,0.305419921875,-0.01025390625,7.206106870229007,-0.183206106870229,-0.8549618320610687,20976,-10,7,-3.3867786296179645,11051.128566269617,0.009198,False,,False,,,,,29
382.183,2.5499953219999725,-0.947021484375,0.305419921875,-0.01025390625,7.206106870229007,-0.183206106870229,-0.8549618320610687,20976,-10,7,-3.3867786296179645,11051.128566269617,0.009198,False,,False,,,,,29
382.188,2.5519971669999677,-0.94921875,0.304931640625,-0.009765625,6.045801526717557,0.0,-1.0076335877862594,20975,-6,0,-3.3892505534460895,11050.604460810982,0.0,False,,False,,,,,29
382.188,2.5539986979999867,-0.94921875,0.304931640625,-0.009765625,6.045801526717557,0.0,-1.0076335877862594,20975,-6,0,-3.3892505534460895,11050.604460810982,0.0,False,,False,,,,,29
382.193,2.5560004689999687,-0.94189453125,0.304931640625,-0.01123046875,6.198473282442748,0.12213740458015267,-1.0687022900763359,20974,-10,2,-3.3917224772742145,11050.112785667196,0.002628,False,,False,,,,,29
382.193,2.558002074000001,-0.94189453125,0.304931640625,-0.01123046875,6.198473282442748,0.12213740458015267,-1.0687022900763359,20974,-10,2,-3.3917224772742145,11050.112785667196,0.002628,False,,False,,,,,29
382.193,2.560004122999999,-0.94189453125,0.304931640625,-0.01123046875,6.198473282442748,0.12213740458015267,-1.0687022900763359,20974,-10,2,-3.3917224772742145,11050.112785667196,0.002628,False,,False,,,,,29
382.19800000000004,2.562005171999999,-0.9384765625,0.299560546875,-0.01025390625,6.045801526717557,0.0916030534351145,-1.282442748091603,20973,-9,5,-3.3941944011023395,11049.657173854775,0.0065699999999999995,False,,False,,,,,29
382.19800000000004,2.5640064069999653,-0.9384765625,0.299560546875,-0.01025390625,6.045801526717557,0.0916030534351145,-1.282442748091603,20973,-9,5,-3.3941944011023395,11049.657173854775,0.0065699999999999995,False,,False,,,,,29
382.20300000000003,2.566009122999958,-0.945068359375,0.303955078125,-0.00732421875,6.045801526717557,0.3969465648854962,-1.5267175572519083,20971,-10,3,-3.3991382487585895,11049.236563420556,0.003942,False,,False,,,,,29
382.20300000000003,2.568009691000043,-0.945068359375,0.303955078125,-0.00732421875,6.045801526717557,0.3969465648854962,-1.5267175572519083,20971,-10,3,-3.3991382487585895,11049.236563420556,0.003942,False,,False,,,,,29
382.20300000000003,2.5700112770000487,-0.945068359375,0.303955078125,-0.00732421875,6.045801526717557,0.3969465648854962,-1.5267175572519083,20971,-10,3,-3.3991382487585895,11049.236563420556,0.003942,False,,False,,,,,29
382.208,2.57201330700002,-0.93994140625,0.313232421875,-0.01171875,5.465648854961832,1.099236641221374,-1.3435114503816794,20969,-8,0,-3.4040820964148395,11048.847767758196,0.0,False,,False,,,,,29
382.208,2.574014189999957,-0.93994140625,0.313232421875,-0.01171875,5.465648854961832,1.099236641221374,-1.3435114503816794,20969,-8,0,-3.4040820964148395,11048.847767758196,0.0,False,,False,,,,,29
382.213,2.576015924999979,-0.935302734375,0.324462890625,-0.01416015625,5.526717557251908,1.2519083969465647,-1.1603053435114503,20966,-9,6,-3.4114978678992145,11048.487658207448,0.007884,False,,False,,,,,29
382.213,2.578016326000011,-0.935302734375,0.324462890625,-0.01416015625,5.526717557251908,1.2519083969465647,-1.1603053435114503,20966,-9,6,-3.4114978678992145,11048.487658207448,0.007884,False,,False,,,,,29
382.213,2.5800178199999664,-0.935302734375,0.324462890625,-0.01416015625,5.526717557251908,1.2519083969465647,-1.1603053435114503,20966,-9,6,-3.4114978678992145,11048.487658207448,0.007884,False,,False,,,,,29
382.218,2.5820197580000013,-0.9365234375,0.321533203125,-0.01171875,5.740458015267175,1.648854961832061,-1.2213740458015268,20963,-17,0,-3.4189136393835895,11048.153199943068,0.0,False,,False,,,,,29
382.218,2.5840206220000255,-0.9365234375,0.321533203125,-0.01171875,5.740458015267175,1.648854961832061,-1.2213740458015268,20963,-17,0,-3.4189136393835895,11048.153199943068,0.0,False,,False,,,,,29
382.223,2.5860219119999783,-0.931884765625,0.3291015625,-0.00830078125,5.465648854961832,2.229007633587786,-0.916030534351145,20955,-38,4,-3.4386890300085895,11047.834318645215,0.005256,False,,False,,,,,29
382.223,2.588023109000005,-0.931884765625,0.3291015625,-0.00830078125,5.465648854961832,2.229007633587786,-0.916030534351145,20955,-38,4,-3.4386890300085895,11047.834318645215,0.005256,False,,False,,,,,29
382.223,2.5900249359999634,-0.931884765625,0.3291015625,-0.00830078125,5.465648854961832,2.229007633587786,-0.916030534351145,20955,-38,4,-3.4386890300085895,11047.834318645215,0.005256,False,,False,,,,,29
382.228,2.5920264669999824,-0.92236328125,0.34765625,-0.004150390625,2.778625954198473,4.0,0.7022900763358778,20942,-65,6,-3.4708240397742145,11047.506240081424,0.007884,False,,False,,,,,29
382.228,2.5940271460000304,-0.92236328125,0.34765625,-0.004150390625,2.778625954198473,4.0,0.7022900763358778,20942,-65,6,-3.4708240397742145,11047.506240081424,0.007884,False,,False,,,,,29
382.228,2.5960301390000495,-0.92236328125,0.34765625,-0.004150390625,2.778625954198473,4.0,0.7022900763358778,20942,-65,6,-3.4708240397742145,11047.506240081424,0.007884,False,,False,,,,,29
382.228,2.5980310039999495,-0.92236328125,0.34765625,-0.004150390625,2.778625954198473,4.0,0.7022900763358778,20942,-65,6,-3.4708240397742145,11047.506240081424,0.007884,False,,False,,,,,29
382.233,2.6000322009999763,-0.917724609375,0.349853515625,-0.004638671875,1.5877862595419847,4.6106870229007635,0.8549618320610687,20921,-91,0,-3.5227344401648395,11047.134032923792,0.0,False,,False,,,,,29
382.238,2.602034824000043,-0.9287109375,0.3486328125,-0.005859375,4.030534351145038,4.33587786259542,-0.2748091603053435,20903,-78,4,-3.5672290690710895,11046.698045105226,0.005256,False,,False,,,,,29
382.238,2.6040351699999746,-0.9287109375,0.3486328125,-0.005859375,4.030534351145038,4.33587786259542,-0.2748091603053435,20903,-78,4,-3.5672290690710895,11046.698045105226,0.005256,False,,False,,,,,29
382.243,2.606037237999999,-0.93505859375,0.352294921875,-0.006591796875,7.7251908396946565,3.7557251908396947,-1.0076335877862594,20890,-54,4,-3.5993640788367145,11046.220348836216,0.005256,False,,False,,,,,29
382.243,2.6080375090000416,-0.93505859375,0.352294921875,-0.006591796875,7.7251908396946565,3.7557251908396947,-1.0076335877862594,20890,-54,4,-3.5993640788367145,11046.220348836216,0.005256,False,,False,,,,,29
382.243,2.610039669999992,-0.93505859375,0.352294921875,-0.006591796875,7.7251908396946565,3.7557251908396947,-1.0076335877862594,20890,-54,4,-3.5993640788367145,11046.220348836216,0.005256,False,,False,,,,,29
382.248,2.6120412369999713,-0.9267578125,0.344970703125,-0.00341796875,5.129770992366412,3.480916030534351,0.33587786259541985,20872,-78,0,-3.6438587077429645,11045.728979306115,0.0,False,,False,,,,,29
382.248,2.614045397000041,-0.9267578125,0.344970703125,-0.00341796875,5.129770992366412,3.480916030534351,0.33587786259541985,20872,-78,0,-3.6438587077429645,11045.728979306115,0.0,False,,False,,,,,29
382.253,2.6160440400000198,-0.92236328125,0.335205078125,-0.005615234375,2.8702290076335877,3.847328244274809,0.24427480916030533,20849,-106,6,-3.7007129557898395,11045.215376066826,0.007884,False,,False,,,,,29
382.253,2.6180453480000097,-0.92236328125,0.335205078125,-0.005615234375,2.8702290076335877,3.847328244274809,0.24427480916030533,20849,-106,6,-3.7007129557898395,11045.215376066826,0.007884,False,,False,,,,,29
382.253,2.6200474529999838,-0.92236328125,0.335205078125,-0.005615234375,2.8702290076335877,3.847328244274809,0.24427480916030533,20849,-106,6,-3.7007129557898395,11045.215376066826,0.007884,False,,False,,,,,29
382.258,2.6220489280000265,-0.9404296875,0.336181640625,0.002685546875,5.068702290076335,3.5725190839694654,-0.6717557251908397,20828,-89,-8,-3.7526233561804645,11044.667323049423,-0.010512,False,,False,,,,,29
382.258,2.624049385000035,-0.9404296875,0.336181640625,0.002685546875,5.068702290076335,3.5725190839694654,-0.6717557251908397,20828,-89,-8,-3.7526233561804645,11044.667323049423,-0.010512,False,,False,,,,,29
382.26300000000003,2.6260515269999587,-0.927001953125,0.352294921875,0.005859375,7.114503816793893,2.778625954198473,-0.366412213740458,20806,-95,1,-3.8070056803992145,11044.094787795033,0.001314,False,,False,,,,,29
382.26300000000003,2.6280521319999934,-0.927001953125,0.352294921875,0.005859375,7.114503816793893,2.778625954198473,-0.366412213740458,20806,-95,1,-3.8070056803992145,11044.094787795033,0.001314,False,,False,,,,,29
382.26300000000003,2.6300540700000283,-0.927001953125,0.352294921875,0.005859375,7.114503816793893,2.778625954198473,-0.366412213740458,20806,-95,1,-3.8070056803992145,11044.094787795033,0.001314,False,,False,,,,,29
382.26800000000003,2.632055007999952,-0.925537109375,0.31982421875,0.00439453125,5.2824427480916025,1.7099236641221374,-0.48854961832061067,20782,-109,-2,-3.8663318522742145,11043.506469613658,-0.002628,False,,False,,,,,29
382.26800000000003,2.6340568159999975,-0.925537109375,0.31982421875,0.00439453125,5.2824427480916025,1.7099236641221374,-0.48854961832061067,20782,-109,-2,-3.8663318522742145,11043.506469613658,-0.002628,False,,False,,,,,29
382.273,2.636058253999977,-0.9423828125,0.327880859375,0.009765625,6.809160305343511,1.4045801526717556,-0.916030534351145,20761,-90,6,-3.9182422526648395,11042.909880051857,0.007884,False,,False,,,,,29
382.273,2.6380593039999667,-0.9423828125,0.327880859375,0.009765625,6.809160305343511,1.4045801526717556,-0.916030534351145,20761,-90,6,-3.9182422526648395,11042.909880051857,0.007884,False,,False,,,,,29
382.273,2.6400604089999433,-0.9423828125,0.327880859375,0.009765625,6.809160305343511,1.4045801526717556,-0.916030534351145,20761,-90,6,-3.9182422526648395,11042.909880051857,0.007884,False,,False,,,,,29
382.278,2.6420620500000496,-0.919677734375,0.344970703125,0.0107421875,6.106870229007633,1.129770992366412,0.6717557251908397,20738,-110,1,-3.9750965007117145,11042.318589480474,0.001314,False,,False,,,,,29
382.278,2.644062952000013,-0.919677734375,0.344970703125,0.0107421875,6.106870229007633,1.129770992366412,0.6717557251908397,20738,-110,1,-3.9750965007117145,11042.318589480474,0.001314,False,,False,,,,,29
382.283,2.646065019000048,-0.911376953125,0.340576171875,0.00244140625,2.717557251908397,1.282442748091603,1.618320610687023,20704,-148,1,-4.0591419108679645,11041.718814941165,0.001314,False,,False,,,,,29
382.283,2.6480656060000456,-0.911376953125,0.340576171875,0.00244140625,2.717557251908397,1.282442748091603,1.618320610687023,20704,-148,1,-4.0591419108679645,11041.718814941165,0.001314,False,,False,,,,,29
382.283,2.6500670809999747,-0.911376953125,0.340576171875,0.00244140625,2.717557251908397,1.282442748091603,1.618320610687023,20704,-148,1,-4.0591419108679645,11041.718814941165,0.001314,False,,False,,,,,29
382.288,2.6520680749999883,-0.91015625,0.36669921875,-0.0009765625,2.778625954198473,2.1068702290076335,3.0534351145038165,20668,-166,6,-4.1481311686804645,11041.07407344069,0.007884,False,,False,,,,,29
382.288,2.6540699759999598,-0.91015625,0.36669921875,-0.0009765625,2.778625954198473,2.1068702290076335,3.0534351145038165,20668,-166,6,-4.1481311686804645,11041.07407344069,0.007884,False,,False,,,,,29
382.293,2.6560730800000556,-0.91552734375,0.3291015625,-0.010498046875,3.1755725190839694,0.916030534351145,1.4351145038167938,20627,-182,8,-4.2494800456335895,11040.365216535572,0.010512,False,,False,,,,,29
382.293,2.6580729820000215,-0.91552734375,0.3291015625,-0.010498046875,3.1755725190839694,0.916030534351145,1.4351145038167938,20627,-182,8,-4.2494800456335895,11040.365216535572,0.010512,False,,False,,,,,29
382.293,2.6600742900000114,-0.91552734375,0.3291015625,-0.010498046875,3.1755725190839694,0.916030534351145,1.4351145038167938,20627,-182,8,-4.2494800456335895,11040.365216535572,0.010512,False,,False,,,,,29
382.298,2.6620755799999642,-0.932373046875,0.3642578125,-0.00146484375,4.458015267175572,2.4427480916030535,2.900763358778626,20584,-188,5,-4.3557727702429645,11039.587885347586,0.0065699999999999995,False,,False,,,,,29
382.298,2.6640771669999594,-0.932373046875,0.3642578125,-0.00146484375,4.458015267175572,2.4427480916030535,2.900763358778626,20584,-188,5,-4.3557727702429645,11039.587885347586,0.0065699999999999995,False,,False,,,,,29
382.303,2.666078920000018,-0.916259765625,0.3232421875,-0.0126953125,4.702290076335878,0.8854961832061068,1.3740458015267174,20544,-181,3,-4.4546497233679645,11038.753746705377,0.003942,False,,False,,,,,29
382.303,2.668079839000029,-0.916259765625,0.3232421875,-0.0126953125,4.702290076335878,0.8854961832061068,1.3740458015267174,20544,-181,3,-4.4546497233679645,11038.753746705377,0.003942,False,,False,,,,,29
382.303,2.670082054999966,-0.916259765625,0.3232421875,-0.0126953125,4.702290076335878,0.8854961832061068,1.3740458015267174,20544,-181,3,-4.4546497233679645,11038.753746705377,0.003942,False,,False,,,,,29
382.308,2.672083290000046,-0.921630859375,0.306884765625,-0.00830078125,4.183206106870228,1.0687022900763359,1.0381679389312977,20498,-194,1,-4.5683582194617145,11037.880552834506,0.001314,False,,False,,,,,29
382.308,2.6740850239999645,-0.921630859375,0.306884765625,-0.00830078125,4.183206106870228,1.0687022900763359,1.0381679389312977,20498,-194,1,-4.5683582194617145,11037.880552834506,0.001314,False,,False,,,,,29
382.313,2.6760869619999994,-0.949951171875,0.332275390625,-0.002197265625,6.3206106870229,2.778625954198473,1.0687022900763359,20461,-169,0,-4.6598194011023395,11036.987312363215,0.0,False,,False,,,,,29
382.313,2.6780879189999496,-0.949951171875,0.332275390625,-0.002197265625,6.3206106870229,2.778625954198473,1.0687022900763359,20461,-169,0,-4.6598194011023395,11036.987312363215,0.0,False,,False,,,,,29
382.313,2.6800892830000294,-0.949951171875,0.332275390625,-0.002197265625,6.3206106870229,2.778625954198473,1.0687022900763359,20461,-169,0,-4.6598194011023395,11036.987312363215,0.0,False,,False,,,,,29
382.318,2.6820908140000483,-0.949951171875,0.29248046875,-0.005859375,9.557251908396946,0.6717557251908397,-1.8015267175572518,20433,-115,-5,-4.7290332682898395,11036.127829963407,-0.0065699999999999995,False,,False,,,,,29
382.318,2.6840919369999483,-0.949951171875,0.29248046875,-0.005859375,9.557251908396946,0.6717557251908397,-1.8015267175572518,20433,-115,-5,-4.7290332682898395,11036.127829963407,-0.0065699999999999995,False,,False,,,,,29
382.32300000000004,2.686092930999962,-0.961669921875,0.30517578125,0.0029296875,12.15267175572519,1.3740458015267174,-2.1374045801526718,20413,-92,-6,-4.7784717448523395,11035.37172793309,-0.007884,False,,False,,,,,29
382.32300000000004,2.6881502280000404,-0.961669921875,0.30517578125,0.0029296875,12.15267175572519,1.3740458015267174,-2.1374045801526718,20413,-92,-6,-4.7784717448523395,11035.37172793309,-0.007884,False,,False,,,,,29
382.32300000000004,2.6901486670000168,-0.961669921875,0.30517578125,0.0029296875,12.15267175572519,1.3740458015267174,-2.1374045801526718,20413,-92,-6,-4.7784717448523395,11035.37172793309,-0.007884,False,,False,,,,,29
382.32800000000003,2.6921504379999988,-0.96337890625,0.27783203125,0.001708984375,8.580152671755725,1.4961832061068703,-3.297709923664122,20389,-92,1,-4.8377979167273395,11034.750728081253,0.001314,False,,False,,,,,29
382.32800000000003,2.6941545800000313,-0.96337890625,0.27783203125,0.001708984375,8.580152671755725,1.4961832061068703,-3.297709923664122,20389,-92,1,-4.8377979167273395,11034.750728081253,0.001314,False,,False,,,,,29
382.333,2.696153018000018,-0.967529296875,0.294921875,0.0048828125,10.167938931297709,1.7404580152671756,-4.33587786259542,20374,-62,1,-4.8748767741492145,11034.267944086974,0.001314,False,,False,,,,,29
382.333,2.6981546790000266,-0.967529296875,0.294921875,0.0048828125,10.167938931297709,1.7404580152671756,-4.33587786259542,20374,-62,1,-4.8748767741492145,11034.267944086974,0.001314,False,,False,,,,,29
382.333,2.700156395000022,-0.967529296875,0.294921875,0.0048828125,10.167938931297709,1.7404580152671756,-4.33587786259542,20374,-62,1,-4.8748767741492145,11034.267944086974,0.001314,False,,False,,,,,29
382.338,2.7021572219999825,-0.9560546875,0.31298828125,0.00244140625,10.931297709923664,1.3740458015267174,-4.0,20363,-47,-1,-4.9020679362585895,11033.940094907484,-0.001314,False,,False,,,,,29
382.338,2.7041588270000148,-0.9560546875,0.31298828125,0.00244140625,10.931297709923664,1.3740458015267174,-4.0,20363,-47,-1,-4.9020679362585895,11033.940094907484,-0.001314,False,,False,,,,,29
382.343,2.7061612649999915,-0.935546875,0.3349609375,-0.000732421875,9.435114503816793,1.7099236641221374,-2.778625954198473,20346,-74,-6,-4.9440906413367145,11033.766399319165,-0.007884,False,,False,,,,,29
382.343,2.708161906999976,-0.935546875,0.3349609375,-0.000732421875,9.435114503816793,1.7099236641221374,-2.778625954198473,20346,-74,-6,-4.9440906413367145,11033.766399319165,-0.007884,False,,False,,,,,29
382.343,2.7101638819999607,-0.935546875,0.3349609375,-0.000732421875,9.435114503816793,1.7099236641221374,-2.778625954198473,20346,-74,-6,-4.9440906413367145,11033.766399319165,-0.007884,False,,False,,,,,29
382.348,2.7121646719999717,-0.93505859375,0.333251953125,-0.004638671875,8.48854961832061,1.6793893129770991,-2.900763358778626,20323,-104,-4,-5.0009448893835895,11033.69920751092,-0.005256,False,,False,,,,,29
382.348,2.714166017000025,-0.93505859375,0.333251953125,-0.004638671875,8.48854961832061,1.6793893129770991,-2.900763358778626,20323,-104,-4,-5.0009448893835895,11033.69920751092,-0.005256,False,,False,,,,,29
382.353,2.716168011000036,-0.94482421875,0.33544921875,-0.001708984375,10.381679389312977,1.648854961832061,-2.8091603053435112,20304,-95,-7,-5.0479114421179645,11033.697085044121,-0.009198,False,,False,,,,,29
382.353,2.718168837999997,-0.94482421875,0.33544921875,-0.001708984375,10.381679389312977,1.648854961832061,-2.8091603053435112,20304,-95,-7,-5.0479114421179645,11033.697085044121,-0.009198,False,,False,,,,,29
382.353,2.7201702390000264,-0.94482421875,0.33544921875,-0.001708984375,10.381679389312977,1.648854961832061,-2.8091603053435112,20304,-95,-7,-5.0479114421179645,11033.697085044121,-0.009198,False,,False,,,,,29
382.358,2.722171454999966,-0.920654296875,0.346435546875,-0.003662109375,8.610687022900763,2.4732824427480917,-1.0076335877862594,20275,-128,1,-5.1195972331335895,11033.735144150305,0.001314,False,,False,,,,,29
382.358,2.7241730599999983,-0.920654296875,0.346435546875,-0.003662109375,8.610687022900763,2.4732824427480917,-1.0076335877862594,20275,-128,1,-5.1195972331335895,11033.735144150305,0.001314,False,,False,,,,,29
382.363,2.7261752389999856,-0.907470703125,0.3330078125,-0.01416015625,4.122137404580153,3.236641221374046,-0.030534351145038167,20237,-174,-3,-5.2135303386023395,11033.761528576093,-0.003942,False,,False,,,,,29
382.363,2.7281766029999517,-0.907470703125,0.3330078125,-0.01416015625,4.122137404580153,3.236641221374046,-0.030534351145038167,20237,-174,-3,-5.2135303386023395,11033.761528576093,-0.003942,False,,False,,,,,29
382.363,2.7301788930000157,-0.907470703125,0.3330078125,-0.01416015625,4.122137404580153,3.236641221374046,-0.030534351145038167,20237,-174,-3,-5.2135303386023395,11033.761528576093,-0.003942,False,,False,,,,,29
382.368,2.7321794050000108,-0.898681640625,0.35595703125,-0.023193359375,3.0229007633587783,4.885496183206107,1.465648854961832,20189,-218,-4,-5.3321826823523395,11033.709717791378,-0.005256,False,,False,,,,,29
382.368,2.734180953999953,-0.898681640625,0.35595703125,-0.023193359375,3.0229007633587783,4.885496183206107,1.465648854961832,20189,-218,-4,-5.3321826823523395,11033.709717791378,-0.005256,False,,False,,,,,29
382.373,2.736183522000033,-0.9345703125,0.37451171875,-0.017578125,5.068702290076335,4.33587786259542,1.7709923664122136,20140,-215,0,-5.4533069499304645,11033.53947885485,0.0,False,,False,,,,,29
382.373,2.7381837010000254,-0.9345703125,0.37451171875,-0.017578125,5.068702290076335,4.33587786259542,1.7709923664122136,20140,-215,0,-5.4533069499304645,11033.53947885485,0.0,False,,False,,,,,29
382.373,2.7401850469999545,-0.9345703125,0.37451171875,-0.017578125,5.068702290076335,4.33587786259542,1.7709923664122136,20140,-215,0,-5.4533069499304645,11033.53947885485,0.0,False,,False,,,,,29
382.378,2.7421865219999972,-0.893798828125,0.335205078125,-0.037353515625,4.9465648854961835,4.7328244274809155,1.7099236641221374,20085,-236,5,-5.5892627604773395,11033.240331172457,0.0065699999999999995,False,,False,,,,,29
382.378,2.744187923000027,-0.893798828125,0.335205078125,-0.037353515625,4.9465648854961835,4.7328244274809155,1.7099236641221374,20085,-236,5,-5.5892627604773395,11033.240331172457,0.0065699999999999995,False,,False,,,,,29
382.383,2.7461894169999823,-0.933837890625,0.36767578125,-0.01953125,3.8167938931297707,6.1679389312977095,2.9618320610687023,20030,-249,4,-5.7252185710242145,11032.814320569702,0.005256,False,,False,,,,,29
382.38800000000003,2.751824248000048,-0.9287109375,0.31005859375,-0.0263671875,7.358778625954198,4.854961832061068,0.15267175572519084,19979,-221,4,-5.8512866862585895,11032.284693147905,0.005256,False,,False,,,,,29
382.38800000000003,2.7538219099999424,-0.9287109375,0.31005859375,-0.0263671875,7.358778625954198,4.854961832061068,0.15267175572519084,19979,-221,4,-5.8512866862585895,11032.284693147905,0.005256,False,,False,,,,,29
382.39300000000003,2.7558239219999905,-0.953857421875,0.3486328125,-0.009765625,8.122137404580153,5.068702290076335,0.9465648854961831,19929,-212,0,-5.9748828776648395,11031.692106730872,0.0,False,,False,,,,,29
382.39300000000003,2.757831599000042,-0.953857421875,0.3486328125,-0.009765625,8.122137404580153,5.068702290076335,0.9465648854961831,19929,-212,0,-5.9748828776648395,11031.692106730872,0.0,False,,False,,,,,29
382.39300000000003,2.759826223999994,-0.953857421875,0.3486328125,-0.009765625,8.122137404580153,5.068702290076335,0.9465648854961831,19929,-212,0,-5.9748828776648395,11031.692106730872,0.0,False,,False,,,,,29
382.398,2.7618271070000446,-0.93115234375,0.2998046875,-0.02001953125,8.0,3.114503816793893,-0.3969465648854962,19886,-194,-4,-6.0811756022742145,11031.078673389959,-0.005256,False,,False,,,,,29
382.398,2.7638283969999975,-0.93115234375,0.2998046875,-0.02001953125,8.0,3.114503816793893,-0.3969465648854962,19886,-194,-4,-6.0811756022742145,11031.078673389959,-0.005256,False,,False,,,,,29
382.403,2.765830778999998,-0.943603515625,0.31640625,-0.009521484375,6.809160305343511,4.885496183206107,0.061068702290076333,19844,-183,5,-6.1849964030554645,11030.485322094777,0.0065699999999999995,False,,False,,,,,29
382.403,2.7678311810000196,-0.943603515625,0.31640625,-0.009521484375,6.809160305343511,4.885496183206107,0.061068702290076333,19844,-183,5,-6.1849964030554645,11030.485322094777,0.0065699999999999995,False,,False,,,,,29
382.403,2.769836654999949,-0.943603515625,0.31640625,-0.009521484375,6.809160305343511,4.885496183206107,0.061068702290076333,19844,-183,5,-6.1849964030554645,11030.485322094777,0.0065699999999999995,False,,False,,,,,29
382.408,2.771835722999981,-0.91162109375,0.33251953125,-0.00634765625,5.312977099236641,4.244274809160305,0.21374045801526717,19796,-211,3,-6.3036487468054645,11029.922750349971,0.003942,False,,False,,,,,29
382.408,2.7738365870000052,-0.91162109375,0.33251953125,-0.00634765625,5.312977099236641,4.244274809160305,0.21374045801526717,19796,-211,3,-6.3036487468054645,11029.922750349971,0.003942,False,,False,,,,,29
382.413,2.7758386550000296,-0.93408203125,0.370849609375,0.006103515625,4.9465648854961835,3.7862595419847325,1.4351145038167938,19748,-212,-1,-6.4223010905554645,11029.374400956893,-0.001314,False,,False,,,,,29
382.413,2.777839814999993,-0.93408203125,0.370849609375,0.006103515625,4.9465648854961835,3.7862595419847325,1.4351145038167938,19748,-212,-1,-6.4223010905554645,11029.374400956893,-0.001314,False,,False,,,,,29
382.413,2.779842308999946,-0.93408203125,0.370849609375,0.006103515625,4.9465648854961835,3.7862595419847325,1.4351145038167938,19748,-212,-1,-6.4223010905554645,11029.374400956893,-0.001314,False,,False,,,,,29
382.418,2.7818446909999466,-0.88818359375,0.3271484375,-0.014892578125,5.099236641221374,3.0229007633587783,0.21374045801526717,19697,-216,0,-6.5483692057898395,11028.829787505658,0.0,False,,False,,,,,29
382.418,2.78384440800005,-0.88818359375,0.3271484375,-0.014892578125,5.099236641221374,3.0229007633587783,0.21374045801526717,19697,-216,0,-6.5483692057898395,11028.829787505658,0.0,False,,False,,,,,29
382.423,2.785848529999953,-0.92529296875,0.378173828125,0.01025390625,6.381679389312977,3.2061068702290076,1.5267175572519083,19645,-227,0,-6.6769092448523395,11028.283657853093,0.0,False,,False,,,,,29
382.423,2.7880585389999624,-0.92529296875,0.378173828125,0.01025390625,6.381679389312977,3.2061068702290076,1.5267175572519083,19645,-227,0,-6.6769092448523395,11028.283657853093,0.0,False,,False,,,,,29
382.423,2.790056606999997,-0.92529296875,0.378173828125,0.01025390625,6.381679389312977,3.2061068702290076,1.5267175572519083,19645,-227,0,-6.6769092448523395,11028.283657853093,0.0,False,,False,,,,,29
382.428,2.792058341000029,-0.900634765625,0.3232421875,-0.011474609375,5.9541984732824424,1.7404580152671756,1.3435114503816794,19593,-240,-1,-6.8054492839148395,11027.735217974434,-0.001314,False,,False,,,,,29
382.428,2.7940595390000453,-0.900634765625,0.3232421875,-0.011474609375,5.9541984732824424,1.7404580152671756,1.3435114503816794,19593,-240,-1,-6.8054492839148395,11027.735217974434,-0.001314,False,,False,,,,,29
382.433,2.7960613100000273,-0.940673828125,0.350830078125,-0.000732421875,6.931297709923664,1.0381679389312977,1.5267175572519083,19542,-225,0,-6.9315173991492145,11027.192789115157,0.0,False,,False,,,,,29
382.433,2.7980623409999907,-0.940673828125,0.350830078125,-0.000732421875,6.931297709923664,1.0381679389312977,1.5267175572519083,19542,-225,0,-6.9315173991492145,11027.192789115157,0.0,False,,False,,,,,29
382.433,2.800064445999965,-0.940673828125,0.350830078125,-0.000732421875,6.931297709923664,1.0381679389312977,1.5267175572519083,19542,-225,0,-6.9315173991492145,11027.192789115157,0.0,False,,False,,,,,29
382.438,2.802065827999968,-0.91357421875,0.3095703125,-0.02001953125,8.916030534351144,-0.4580152671755725,0.061068702290076333,19497,-203,-1,-7.0427539714148395,11026.67757462264,-0.001314,False,,False,,,,,29
382.438,2.804067248000024,-0.91357421875,0.3095703125,-0.02001953125,8.916030534351144,-0.4580152671755725,0.061068702290076333,19497,-203,-1,-7.0427539714148395,11026.67757462264,-0.001314,False,,False,,,,,29
382.443,2.8060695379999743,-0.931640625,0.33154296875,-0.01123046875,8.061068702290076,0.7633587786259541,0.9465648854961831,19453,-194,0,-7.1515186198523395,11026.217674328174,0.0,False,,False,,,,,29
382.443,2.8080710870000303,-0.931640625,0.33154296875,-0.01123046875,8.061068702290076,0.7633587786259541,0.9465648854961831,19453,-194,0,-7.1515186198523395,11026.217674328174,0.0,False,,False,,,,,29
382.443,2.8100728580000123,-0.931640625,0.33154296875,-0.01123046875,8.061068702290076,0.7633587786259541,0.9465648854961831,19453,-194,0,-7.1515186198523395,11026.217674328174,0.0,False,,False,,,,,29
382.44800000000004,2.812074186000018,-0.927734375,0.304443359375,-0.01416015625,7.572519083969465,0.12213740458015267,0.2748091603053435,19412,-185,-9,-7.2528674968054645,11025.830440060336,-0.011826,False,,False,,,,,29
382.44800000000004,2.814075494000008,-0.927734375,0.304443359375,-0.01416015625,7.572519083969465,0.12213740458015267,0.2748091603053435,19412,-185,-9,-7.2528674968054645,11025.830440060336,-0.011826,False,,False,,,,,29
382.45300000000003,2.81607726499999,-0.9580078125,0.317138671875,-0.005615234375,8.702290076335878,-1.129770992366412,0.030534351145038167,19374,-168,-4,-7.3468006022742145,11025.527555254634,-0.005256,False,,False,,,,,29
382.45300000000003,2.8180778519999876,-0.9580078125,0.317138671875,-0.005615234375,8.702290076335878,-1.129770992366412,0.030534351145038167,19374,-168,-4,-7.3468006022742145,11025.527555254634,-0.005256,False,,False,,,,,29
382.45300000000003,2.8200802530000146,-0.9580078125,0.317138671875,-0.005615234375,8.702290076335878,-1.129770992366412,0.030534351145038167,19374,-168,-4,-7.3468006022742145,11025.527555254634,-0.005256,False,,False,,,,,29
382.458,2.8220814500000415,-0.924560546875,0.308349609375,-0.01220703125,6.290076335877862,-0.183206106870229,1.129770992366412,19333,-185,0,-7.4481494792273395,11025.310417105591,0.0,False,,False,,,,,29
382.458,2.8240825740000446,-0.924560546875,0.308349609375,-0.01220703125,6.290076335877862,-0.183206106870229,1.129770992366412,19333,-185,0,-7.4481494792273395,11025.310417105591,0.0,False,,False,,,,,29
382.463,2.8260847899999817,-0.9560546875,0.316162109375,-0.004638671875,6.076335877862595,-0.8549618320610687,1.0381679389312977,19291,-184,2,-7.5519702800085895,11025.161048088828,0.002628,False,,False,,,,,29
382.463,2.8280856349999794,-0.9560546875,0.316162109375,-0.004638671875,6.076335877862595,-0.8549618320610687,1.0381679389312977,19291,-184,2,-7.5519702800085895,11025.161048088828,0.002628,False,,False,,,,,29
382.463,2.8300878689999536,-0.9560546875,0.316162109375,-0.004638671875,6.076335877862595,-0.8549618320610687,1.0381679389312977,19291,-184,2,-7.5519702800085895,11025.161048088828,0.002628,False,,False,,,,,29
382.468,2.8320890479999434,-0.966552734375,0.32275390625,-0.004638671875,5.9541984732824424,-1.2519083969465647,1.129770992366412,19250,-173,2,-7.6533191569617145,11025.063415997492,0.002628,False,,False,,,,,29
382.468,2.8340909859999783,-0.966552734375,0.32275390625,-0.004638671875,5.9541984732824424,-1.2519083969465647,1.129770992366412,19250,-173,2,-7.6533191569617145,11025.063415997492,0.002628,False,,False,,,,,29
382.473,2.836091462000013,-0.928955078125,0.30908203125,-0.02099609375,5.374045801526718,-0.8549618320610687,1.648854961832061,19210,-175,7,-7.7521961100867145,11025.01409248851,0.009198,False,,False,,,,,29
382.473,2.8380931990000136,-0.928955078125,0.30908203125,-0.02099609375,5.374045801526718,-0.8549618320610687,1.648854961832061,19210,-175,7,-7.7521961100867145,11025.01409248851,0.009198,False,,False,,,,,29
382.473,2.840094733000001,-0.928955078125,0.30908203125,-0.02099609375,5.374045801526718,-0.8549618320610687,1.648854961832061,19210,-175,7,-7.7521961100867145,11025.01409248851,0.009198,False,,False,,,,,29
382.478,2.842095878000009,-0.96728515625,0.3251953125,-0.01123046875,5.343511450381679,-1.8015267175572518,1.984732824427481,19174,-163,5,-7.8411853678992145,11025.018460103605,0.0065699999999999995,False,,False,,,,,29
382.478,2.8440973010000334,-0.96728515625,0.3251953125,-0.01123046875,5.343511450381679,-1.8015267175572518,1.984732824427481,19174,-163,5,-7.8411853678992145,11025.018460103605,0.0065699999999999995,False,,False,,,,,29
382.483,2.8461006679999628,-0.932861328125,0.31640625,-0.02734375,2.351145038167939,-0.366412213740458,3.145038167938931,19132,-178,3,-7.9450061686804645,11025.073085182668,0.003942,False,,False,,,,,29
382.483,2.848101184000029,-0.932861328125,0.31640625,-0.02734375,2.351145038167939,-0.366412213740458,3.145038167938931,19132,-178,3,-7.9450061686804645,11025.073085182668,0.003942,False,,False,,,,,29
382.483,2.8501023290000376,-0.932861328125,0.31640625,-0.02734375,2.351145038167939,-0.366412213740458,3.145038167938931,19132,-178,3,-7.9450061686804645,11025.073085182668,0.003942,False,,False,,,,,29
382.488,2.8521042520000037,-0.94921875,0.316162109375,-0.0361328125,3.541984732824427,-0.2748091603053435,2.748091603053435,19096,-167,0,-8.033995426492964,11025.165412541515,0.0,False,,False,,,,,29
382.488,2.8541046750000305,-0.94921875,0.316162109375,-0.0361328125,3.541984732824427,-0.2748091603053435,2.748091603053435,19096,-167,0,-8.033995426492964,11025.165412541515,0.0,False,,False,,,,,29
382.493,2.856106875000023,-0.985595703125,0.296142578125,-0.029541015625,6.564885496183206,-1.9236641221374045,0.7633587786259541,19070,-111,4,-8.098265446024214,11025.316614102721,0.005256,False,,False,,,,,29
382.493,2.8581100019999894,-0.985595703125,0.296142578125,-0.029541015625,6.564885496183206,-1.9236641221374045,0.7633587786259541,19070,-111,4,-8.098265446024214,11025.316614102721,0.005256,False,,False,,,,,29
382.493,2.8601093879999553,-0.985595703125,0.296142578125,-0.029541015625,6.564885496183206,-1.9236641221374045,0.7633587786259541,19070,-111,4,-8.098265446024214,11025.316614102721,0.005256,False,,False,,,,,29
382.498,2.862110791999953,-0.974365234375,0.298828125,-0.03173828125,7.3893129770992365,-1.129770992366412,1.5877862595419847,19048,-94,2,-8.152647770242964,11025.568628775287,0.002628,False,,False,,,,,29
382.498,2.8641118819999747,-0.974365234375,0.298828125,-0.03173828125,7.3893129770992365,-1.129770992366412,1.5877862595419847,19048,-94,2,-8.152647770242964,11025.568628775287,0.002628,False,,False,,,,,29
382.503,2.8661133419999487,-0.97314453125,0.282958984375,-0.030517578125,3.9389312977099236,-0.9465648854961831,1.6793893129770991,19028,-94,0,-8.202086246805464,11025.937201550705,0.0,False,,False,,,,,29
382.503,2.8681145609999703,-0.97314453125,0.282958984375,-0.030517578125,3.9389312977099236,-0.9465648854961831,1.6793893129770991,19028,-94,0,-8.202086246805464,11025.937201550705,0.0,False,,False,,,,,29
382.503,2.870117280000045,-0.97314453125,0.282958984375,-0.030517578125,3.9389312977099236,-0.9465648854961831,1.6793893129770991,19028,-94,0,-8.202086246805464,11025.937201550705,0.0,False,,False,,,,,29
382.508,2.8721182960000533,-0.99609375,0.289794921875,-0.033935546875,5.007633587786259,0.0916030534351145,-0.3053435114503817,19014,-53,-2,-8.236693180399214,11026.423082276646,-0.002628,False,,False,,,,,29
382.508,2.8741191819999585,-0.99609375,0.289794921875,-0.033935546875,5.007633587786259,0.0916030534351145,-0.3053435114503817,19014,-53,-2,-8.236693180399214,11026.423082276646,-0.002628,False,,False,,,,,29
382.51300000000003,2.8761209199999485,-0.9892578125,0.2939453125,-0.03466796875,6.473282442748092,-0.549618320610687,-0.8549618320610687,19013,-4,-1,-8.23916510422734,11027.048475857386,-0.001314,False,,False,,,,,29
382.51300000000003,2.878122658000052,-0.9892578125,0.2939453125,-0.03466796875,6.473282442748092,-0.549618320610687,-0.8549618320610687,19013,-4,-1,-8.23916510422734,11027.048475857386,-0.001314,False,,False,,,,,29
382.51300000000003,2.880124672999955,-0.9892578125,0.2939453125,-0.03466796875,6.473282442748092,-0.549618320610687,-0.8549618320610687,19013,-4,-1,-8.23916510422734,11027.048475857386,-0.001314,False,,False,,,,,29
382.51800000000003,2.8821260769999526,-0.991455078125,0.2958984375,-0.03564453125,6.229007633587786,-0.366412213740458,-0.6717557251908397,19012,1,0,-8.241637028055464,11027.838903267679,0.0,False,,False,,,,,29
382.51800000000003,2.884127000000035,-0.991455078125,0.2958984375,-0.03564453125,6.229007633587786,-0.366412213740458,-0.6717557251908397,19012,1,0,-8.241637028055464,11027.838903267679,0.0,False,,False,,,,,29
382.523,2.8861287570000513,-0.979736328125,0.281982421875,-0.040771484375,3.480916030534351,0.2748091603053435,-0.6717557251908397,19012,0,-1,-8.241637028055464,11028.781110325339,-0.001314,False,,False,,,,,29
382.523,2.88812971699997,-0.979736328125,0.281982421875,-0.040771484375,3.480916030534351,0.2748091603053435,-0.6717557251908397,19012,0,-1,-8.241637028055464,11028.781110325339,-0.001314,False,,False,,,,,29
382.523,2.890131194999981,-0.979736328125,0.281982421875,-0.040771484375,3.480916030534351,0.2748091603053435,-0.6717557251908397,19012,0,-1,-8.241637028055464,11028.781110325339,-0.001314,False,,False,,,,,29
382.528,2.8921326739999813,-0.97802734375,0.319091796875,-0.044921875,1.2213740458015268,2.015267175572519,0.2748091603053435,19013,1,-1,-8.23916510422734,11029.842106536229,-0.001314,False,,False,,,,,29
382.528,2.894134188999942,-0.97802734375,0.319091796875,-0.044921875,1.2213740458015268,2.015267175572519,0.2748091603053435,19013,1,-1,-8.23916510422734,11029.842106536229,-0.001314,False,,False,,,,,29
382.533,2.896136167999998,-0.970947265625,0.3359375,-0.04541015625,1.3129770992366412,2.1068702290076335,0.549618320610687,19011,-9,2,-8.24410895188359,11030.987180485114,0.002628,False,,False,,,,,29
382.533,2.8981378309999855,-0.970947265625,0.3359375,-0.04541015625,1.3129770992366412,2.1068702290076335,0.549618320610687,19011,-9,2,-8.24410895188359,11030.987180485114,0.002628,False,,False,,,,,29
382.533,2.9001400869999543,-0.970947265625,0.3359375,-0.04541015625,1.3129770992366412,2.1068702290076335,0.549618320610687,19011,-9,2,-8.24410895188359,11030.987180485114,0.002628,False,,False,,,,,29
382.538,2.902141603000018,-0.972412109375,0.346923828125,-0.0419921875,1.4351145038167938,2.1374045801526718,0.916030534351145,19012,-6,0,-8.241637028055464,11032.182473392577,0.0,False,,False,,,,,29
382.538,2.904143266999995,-0.972412109375,0.346923828125,-0.0419921875,1.4351145038167938,2.1374045801526718,0.916030534351145,19012,-6,0,-8.241637028055464,11032.182473392577,0.0,False,,False,,,,,29
382.543,2.9061453010000378,-0.968505859375,0.3466796875,-0.04296875,1.3129770992366412,2.229007633587786,1.3129770992366412,19012,3,0,-8.241637028055464,11033.406073818132,0.0,False,,False,,,,,29
382.543,2.908146871999975,-0.968505859375,0.3466796875,-0.04296875,1.3129770992366412,2.229007633587786,1.3129770992366412,19012,3,0,-8.241637028055464,11033.406073818132,0.0,False,,False,,,,,29
382.543,2.9101488320000044,-0.968505859375,0.3466796875,-0.04296875,1.3129770992366412,2.229007633587786,1.3129770992366412,19012,3,0,-8.241637028055464,11033.406073818132,0.0,False,,False,,,,,29
382.548,2.912150532000055,-0.955078125,0.357666015625,-0.0322265625,0.916030534351145,2.351145038167939,1.618320610687023,19011,1,0,-8.24410895188359,11034.635646814255,0.0,False,,False,,,,,29
382.548,2.9141516959999763,-0.955078125,0.357666015625,-0.0322265625,0.916030534351145,2.351145038167939,1.618320610687023,19011,1,0,-8.24410895188359,11034.635646814255,0.0,False,,False,,,,,29
382.553,2.916153822999945,-0.951171875,0.364501953125,-0.0283203125,1.0381679389312977,2.1374045801526718,1.8931297709923662,19013,6,4,-8.23916510422734,11035.8524074497,0.005256,False,,False,,,,,29
382.553,2.9181545420000248,-0.951171875,0.364501953125,-0.0283203125,1.0381679389312977,2.1374045801526718,1.8931297709923662,19013,6,4,-8.23916510422734,11035.8524074497,0.005256,False,,False,,,,,29
382.553,2.920155891000036,-0.951171875,0.364501953125,-0.0283203125,1.0381679389312977,2.1374045801526718,1.8931297709923662,19013,6,4,-8.23916510422734,11035.8524074497,0.005256,False,,False,,,,,29
382.558,2.9221580910000284,-0.944580078125,0.369384765625,-0.029541015625,1.4045801526717556,1.618320610687023,2.015267175572519,19011,-5,2,-8.24410895188359,11037.042605438039,0.002628,False,,False,,,,,29
382.558,2.9241642539999475,-0.944580078125,0.369384765625,-0.029541015625,1.4045801526717556,1.618320610687023,2.015267175572519,19011,-5,2,-8.24410895188359,11037.042605438039,0.002628,False,,False,,,,,29
382.563,2.9261608079999633,-0.9375,0.376708984375,-0.03125,1.8015267175572518,1.5572519083969465,1.7709923664122136,19012,-4,-1,-8.241637028055464,11038.189742585066,-0.001314,False,,False,,,,,29
382.563,2.928162268000051,-0.9375,0.376708984375,-0.03125,1.8015267175572518,1.5572519083969465,1.7709923664122136,19012,-4,-1,-8.241637028055464,11038.189742585066,-0.001314,False,,False,,,,,29
382.563,2.9301650239999617,-0.9375,0.376708984375,-0.03125,1.8015267175572518,1.5572519083969465,1.7709923664122136,19012,-4,-1,-8.241637028055464,11038.189742585066,-0.001314,False,,False,,,,,29
382.568,2.932165779999991,-0.932373046875,0.392333984375,-0.032958984375,2.8091603053435112,1.2213740458015268,1.8931297709923662,19013,1,2,-8.23916510422734,11039.287792732586,0.002628,False,,False,,,,,29
382.568,2.9341677029999573,-0.932373046875,0.392333984375,-0.032958984375,2.8091603053435112,1.2213740458015268,1.8931297709923662,19013,1,2,-8.23916510422734,11039.287792732586,0.002628,False,,False,,,,,29
382.57300000000004,2.9361727919999794,-0.919921875,0.407470703125,-0.037109375,3.1755725190839694,0.8549618320610687,2.2900763358778624,19013,0,-5,-8.23916510422734,11040.332422000998,-0.0065699999999999995,False,,False,,,,,29
382.57300000000004,2.9381705119999424,-0.919921875,0.407470703125,-0.037109375,3.1755725190839694,0.8549618320610687,2.2900763358778624,19013,0,-5,-8.23916510422734,11040.332422000998,-0.0065699999999999995,False,,False,,,,,29
382.57300000000004,2.940171898000017,-0.919921875,0.407470703125,-0.037109375,3.1755725190839694,0.8549618320610687,2.2900763358778624,19013,0,-5,-8.23916510422734,11040.332422000998,-0.0065699999999999995,False,,False,,,,,29
382.57800000000003,2.9421731359999512,-0.920654296875,0.416748046875,-0.045654296875,4.33587786259542,0.4580152671755725,2.1374045801526718,19011,0,-4,-8.24410895188359,11041.310033014459,-0.005256,False,,False,,,,,29
382.57800000000003,2.944174707000002,-0.920654296875,0.416748046875,-0.045654296875,4.33587786259542,0.4580152671755725,2.1374045801526718,19011,0,-4,-8.24410895188359,11041.310033014459,-0.005256,False,,False,,,,,29
382.583,2.9461772219999602,-0.919921875,0.42724609375,-0.044921875,5.679389312977099,0.0916030534351145,1.7709923664122136,19010,-10,0,-8.246580875711714,11042.21021317542,0.0,False,,False,,,,,29
382.583,2.9481780710000294,-0.919921875,0.42724609375,-0.044921875,5.679389312977099,0.0916030534351145,1.7709923664122136,19010,-10,0,-8.246580875711714,11042.21021317542,0.0,False,,False,,,,,29
382.583,2.9501796979999426,-0.919921875,0.42724609375,-0.044921875,5.679389312977099,0.0916030534351145,1.7709923664122136,19010,-10,0,-8.246580875711714,11042.21021317542,0.0,False,,False,,,,,29
382.588,2.952181102000054,-0.91259765625,0.434814453125,-0.039794921875,6.65648854961832,-0.7022900763358778,2.198473282442748,19006,-20,0,-8.256468571024214,11043.027157471983,0.0,False,,False,,,,,29
382.588,2.9541831359999833,-0.91259765625,0.434814453125,-0.039794921875,6.65648854961832,-0.7022900763358778,2.198473282442748,19006,-20,0,-8.256468571024214,11043.027157471983,0.0,False,,False,,,,,29
382.593,2.95618498500005,-0.89892578125,0.44482421875,-0.040771484375,5.893129770992366,-0.6412213740458015,2.9923664122137406,18996,-54,0,-8.281187809305464,11043.742887836077,0.0,False,,False,,,,,29
382.593,2.958186684999987,-0.89892578125,0.44482421875,-0.040771484375,5.893129770992366,-0.6412213740458015,2.9923664122137406,18996,-54,0,-8.281187809305464,11043.742887836077,0.0,False,,False,,,,,29
382.593,2.9601883489999636,-0.89892578125,0.44482421875,-0.040771484375,5.893129770992366,-0.6412213740458015,2.9923664122137406,18996,-54,0,-8.281187809305464,11043.742887836077,0.0,False,,False,,,,,29
382.598,2.9621899940000276,-0.884765625,0.45947265625,-0.039794921875,4.580152671755725,-0.6106870229007634,4.427480916030534,18976,-95,0,-8.330626285867964,11044.318752559167,0.0,False,,False,,,,,29
382.598,2.9641916760000413,-0.884765625,0.45947265625,-0.039794921875,4.580152671755725,-0.6106870229007634,4.427480916030534,18976,-95,0,-8.330626285867964,11044.318752559167,0.0,False,,False,,,,,29
382.603,2.966193618000034,-0.875,0.449951171875,-0.045166015625,4.366412213740458,-1.099236641221374,4.427480916030534,18949,-120,-3,-8.39736822922734,11044.71009530197,-0.003942,False,,False,,,,,29
382.603,2.9681945590000396,-0.875,0.449951171875,-0.045166015625,4.366412213740458,-1.099236641221374,4.427480916030534,18949,-120,-3,-8.39736822922734,11044.71009530197,-0.003942,False,,False,,,,,29
382.603,2.9701962789999925,-0.875,0.449951171875,-0.045166015625,4.366412213740458,-1.099236641221374,4.427480916030534,18949,-120,-3,-8.39736822922734,11044.71009530197,-0.003942,False,,False,,,,,29
382.608,2.972197553000001,-0.8583984375,0.474365234375,-0.033935546875,7.236641221374046,-1.618320610687023,6.351145038167939,18917,-137,5,-8.47646979172734,11044.889365732673,0.0065699999999999995,False,,False,,,,,29
382.608,2.974198605999959,-0.8583984375,0.474365234375,-0.033935546875,7.236641221374046,-1.618320610687023,6.351145038167939,18917,-137,5,-8.47646979172734,11044.889365732673,0.0065699999999999995,False,,False,,,,,29
382.613,2.9762008620000415,-0.84521484375,0.43505859375,-0.052978515625,6.076335877862595,-3.1755725190839694,5.2824427480916025,18874,-191,0,-8.582762516336714,11044.83836195665,0.0,False,,False,,,,,29
382.613,2.978201008000042,-0.84521484375,0.43505859375,-0.052978515625,6.076335877862595,-3.1755725190839694,5.2824427480916025,18874,-191,0,-8.582762516336714,11044.83836195665,0.0,False,,False,,,,,29
382.613,2.9802030229999446,-0.84521484375,0.43505859375,-0.052978515625,6.076335877862595,-3.1755725190839694,5.2824427480916025,18874,-191,0,-8.582762516336714,11044.83836195665,0.0,False,,False,,,,,29
382.618,2.9822045570000455,-0.865966796875,0.477783203125,-0.03466796875,6.229007633587786,-2.229007633587786,7.267175572519084,18820,-239,-7,-8.716246403055464,11044.527276559389,-0.009198,False,,False,,,,,29
382.618,2.984206221000022,-0.865966796875,0.477783203125,-0.03466796875,6.229007633587786,-2.229007633587786,7.267175572519084,18820,-239,-7,-8.716246403055464,11044.527276559389,-0.009198,False,,False,,,,,29
382.623,2.9862075879999566,-0.84228515625,0.443115234375,-0.052490234375,7.511450381679389,-4.458015267175572,6.229007633587786,18761,-269,-7,-8.86208990891484,11043.934923051585,-0.009198,False,,False,,,,,29
382.623,2.9882088629999544,-0.84228515625,0.443115234375,-0.052490234375,7.511450381679389,-4.458015267175572,6.229007633587786,18761,-269,-7,-8.86208990891484,11043.934923051585,-0.009198,False,,False,,,,,29
382.623,2.9902112490000263,-0.84228515625,0.443115234375,-0.052490234375,7.511450381679389,-4.458015267175572,6.229007633587786,18761,-269,-7,-8.86208990891484,11043.934923051585,-0.009198,False,,False,,,,,29
382.628,2.992212300999995,-0.843017578125,0.464111328125,-0.04443359375,7.358778625954198,-3.9083969465648853,8.0,18691,-318,3,-9.03512457688359,11043.058382172207,0.003942,False,,False,,,,,29
382.628,2.994213631999969,-0.843017578125,0.464111328125,-0.04443359375,7.358778625954198,-3.9083969465648853,8.0,18691,-318,3,-9.03512457688359,11043.058382172207,0.003942,False,,False,,,,,29
382.633,2.9962157209999987,-0.844482421875,0.455078125,-0.0478515625,9.465648854961831,-5.404580152671755,7.0534351145038165,18614,-339,5,-9.225462711649214,11041.895745905755,0.0065699999999999995,False,,False,,,,,29
382.633,2.9982163109999647,-0.844482421875,0.455078125,-0.0478515625,9.465648854961831,-5.404580152671755,7.0534351145038165,18614,-339,5,-9.225462711649214,11041.895745905755,0.0065699999999999995,False,,False,,,,,29
382.633,3.0002176599999757,-0.844482421875,0.455078125,-0.0478515625,9.465648854961831,-5.404580152671755,7.0534351145038165,18614,-339,5,-9.225462711649214,11041.895745905755,0.0065699999999999995,False,,False,,,,,29
382.63800000000003,3.002219250000053,-0.85009765625,0.46142578125,-0.04736328125,12.061068702290076,-6.198473282442748,7.236641221374046,18537,-343,-3,-9.41580084641484,11040.465676019207,-0.003942,False,,False,,,,,29
382.63800000000003,3.0042211909999423,-0.85009765625,0.46142578125,-0.04736328125,12.061068702290076,-6.198473282442748,7.236641221374046,18537,-343,-3,-9.41580084641484,11040.465676019207,-0.003942,False,,False,,,,,29
382.64300000000003,3.006223058000046,-0.848876953125,0.447265625,-0.053955078125,14.290076335877862,-7.66412213740458,6.595419847328244,18456,-357,1,-9.616026676492964,11038.812737097389,0.001314,False,,False,,,,,29
382.64300000000003,3.008225259000028,-0.848876953125,0.447265625,-0.053955078125,14.290076335877862,-7.66412213740458,6.595419847328244,18456,-357,1,-9.616026676492964,11038.812737097389,0.001314,False,,False,,,,,29
382.64300000000003,3.0102286259999573,-0.848876953125,0.447265625,-0.053955078125,14.290076335877862,-7.66412213740458,6.595419847328244,18456,-357,1,-9.616026676492964,11038.812737097389,0.001314,False,,False,,,,,29
382.648,3.0122419909999962,-0.84375,0.438232421875,-0.0546875,15.114503816793892,-8.854961832061068,6.65648854961832,18371,-380,1,-9.82614020188359,11036.975675932414,0.001314,False,,False,,,,,29
382.648,3.0142322680000007,-0.84375,0.438232421875,-0.0546875,15.114503816793892,-8.854961832061068,6.65648854961832,18371,-380,1,-9.82614020188359,11036.975675932414,0.001314,False,,False,,,,,29
382.653,3.01623302400003,-0.852783203125,0.44580078125,-0.048583984375,16.33587786259542,-9.557251908396946,7.022900763358779,18281,-414,0,-10.04861334641484,11034.980645435346,0.0,False,,False,,,,,29
382.653,3.0182350210000095,-0.852783203125,0.44580078125,-0.048583984375,16.33587786259542,-9.557251908396946,7.022900763358779,18281,-414,0,-10.04861334641484,11034.980645435346,0.0,False,,False,,,,,29
382.653,3.0202347409999675,-0.852783203125,0.44580078125,-0.048583984375,16.33587786259542,-9.557251908396946,7.022900763358779,18281,-414,0,-10.04861334641484,11034.980645435346,0.0,False,,False,,,,,29
382.658,3.022234979000018,-0.839111328125,0.434814453125,-0.05322265625,16.702290076335878,-10.015267175572518,7.022900763358779,18184,-432,1,-10.288389957742964,11032.844666784777,0.001314,False,,False,,,,,29
382.658,3.024239419999958,-0.839111328125,0.434814453125,-0.05322265625,16.702290076335878,-10.015267175572518,7.022900763358779,18184,-432,1,-10.288389957742964,11032.844666784777,0.001314,False,,False,,,,,29
382.663,3.0262425460000486,-0.854248046875,0.42626953125,-0.0498046875,19.32824427480916,-11.297709923664122,6.564885496183206,18086,-428,2,-10.530638492899214,11030.585822180561,0.002628,False,,False,,,,,29
382.663,3.028243098999951,-0.854248046875,0.42626953125,-0.0498046875,19.32824427480916,-11.297709923664122,6.564885496183206,18086,-428,2,-10.530638492899214,11030.585822180561,0.002628,False,,False,,,,,29
382.663,3.030243300000052,-0.854248046875,0.42626953125,-0.0498046875,19.32824427480916,-11.297709923664122,6.564885496183206,18086,-428,2,-10.530638492899214,11030.585822180561,0.002628,False,,False,,,,,29
382.668,3.0322447779999493,-0.8623046875,0.41162109375,-0.041259765625,23.053435114503817,-12.6412213740458,6.351145038167939,17987,-446,0,-10.77535895188359,11028.238934675708,0.0,False,,False,,,,,29
382.668,3.034245071999976,-0.8623046875,0.41162109375,-0.041259765625,23.053435114503817,-12.6412213740458,6.351145038167939,17987,-446,0,-10.77535895188359,11028.238934675708,0.0,False,,False,,,,,29
382.673,3.0362485130000323,-0.849853515625,0.37548828125,-0.047607421875,22.198473282442748,-12.519083969465647,6.5038167938931295,17884,-461,-7,-11.029967106180464,11025.839804457124,-0.009198,False,,False,,,,,29
382.673,3.038246158999982,-0.849853515625,0.37548828125,-0.047607421875,22.198473282442748,-12.519083969465647,6.5038167938931295,17884,-461,-7,-11.029967106180464,11025.839804457124,-0.009198,False,,False,,,,,29
382.673,3.0402493039999854,-0.849853515625,0.37548828125,-0.047607421875,22.198473282442748,-12.519083969465647,6.5038167938931295,17884,-461,-7,-11.029967106180464,11025.839804457124,-0.009198,False,,False,,,,,29
382.678,3.0422504489999938,-0.86328125,0.386962890625,-0.039794921875,21.893129770992367,-12.366412213740457,7.0534351145038165,17773,-484,-1,-11.30435065110234,11023.401254568615,-0.001314,False,,False,,,,,29
382.678,3.0442517239999916,-0.86328125,0.386962890625,-0.039794921875,21.893129770992367,-12.366412213740457,7.0534351145038165,17773,-484,-1,-11.30435065110234,11023.401254568615,-0.001314,False,,False,,,,,29
382.683,3.0462538870000344,-0.864501953125,0.356201171875,-0.043701171875,23.114503816793892,-13.038167938931297,5.801526717557252,17663,-473,1,-11.57626227219609,11020.931010280792,0.001314,False,,False,,,,,29
382.683,3.0482554579999714,-0.864501953125,0.356201171875,-0.043701171875,23.114503816793892,-13.038167938931297,5.801526717557252,17663,-473,1,-11.57626227219609,11020.931010280792,0.001314,False,,False,,,,,29
382.683,3.050257917999943,-0.864501953125,0.356201171875,-0.043701171875,23.114503816793892,-13.038167938931297,5.801526717557252,17663,-473,1,-11.57626227219609,11020.931010280792,0.001314,False,,False,,,,,29
382.688,3.052259434000007,-0.89013671875,0.341064453125,-0.029296875,26.748091603053435,-13.893129770992365,5.709923664122138,17553,-484,5,-11.84817389328984,11018.459274750712,0.0065699999999999995,False,,False,,,,,29
382.688,3.054260634000002,-0.89013671875,0.341064453125,-0.029296875,26.748091603053435,-13.893129770992365,5.709923664122138,17553,-484,5,-11.84817389328984,11018.459274750712,0.0065699999999999995,False,,False,,,,,29
382.693,3.0562985870000148,-0.901611328125,0.31787109375,-0.025634765625,25.2824427480916,-13.099236641221374,5.984732824427481,17440,-507,-3,-12.127501285867964,11016.018517127157,-0.003942,False,,False,,,,,29
382.693,3.0582628319999685,-0.901611328125,0.31787109375,-0.025634765625,25.2824427480916,-13.099236641221374,5.984732824427481,17440,-507,-3,-12.127501285867964,11016.018517127157,-0.003942,False,,False,,,,,29
382.693,3.0602656249999427,-0.901611328125,0.31787109375,-0.025634765625,25.2824427480916,-13.099236641221374,5.984732824427481,17440,-507,-3,-12.127501285867964,11016.018517127157,-0.003942,False,,False,,,,,29
382.69800000000004,3.0622666040000013,-0.931396484375,0.321533203125,-0.019775390625,25.038167938931295,-12.977099236641221,6.137404580152672,17322,-513,-2,-12.419188297586714,11013.619356679324,-0.002628,False,,False,,,,,29
382.69800000000004,3.06427028600001,-0.931396484375,0.321533203125,-0.019775390625,25.038167938931295,-12.977099236641221,6.137404580152672,17322,-513,-2,-12.419188297586714,11013.619356679324,-0.002628,False,,False,,,,,29
382.70300000000003,3.0662701720000314,-0.92578125,0.3017578125,-0.02392578125,25.374045801526716,-13.099236641221374,5.221374045801526,17207,-503,0,-12.70345953782109,11011.27187156181,0.0,False,,False,,,,,29
382.70300000000003,3.0682703910000555,-0.92578125,0.3017578125,-0.02392578125,25.374045801526716,-13.099236641221374,5.221374045801526,17207,-503,0,-12.70345953782109,11011.27187156181,0.0,False,,False,,,,,29
382.70300000000003,3.0702755170000273,-0.92578125,0.3017578125,-0.02392578125,25.374045801526716,-13.099236641221374,5.221374045801526,17207,-503,0,-12.70345953782109,11011.27187156181,0.0,False,,False,,,,,29
382.708,3.0722736999999825,-0.956787109375,0.30078125,-0.011474609375,27.14503816793893,-13.648854961832061,5.6183206106870225,17092,-502,-8,-12.987730778055464,11009.003445961107,-0.010512,False,,False,,,,,29
382.708,3.0742820479999864,-0.956787109375,0.30078125,-0.011474609375,27.14503816793893,-13.648854961832061,5.6183206106870225,17092,-502,-8,-12.987730778055464,11009.003445961107,-0.010512,False,,False,,,,,29
382.713,3.0762821560000475,-0.97998046875,0.281005859375,-0.008056640625,25.251908396946565,-12.702290076335878,5.923664122137405,16973,-524,-1,-13.28188971360234,11006.832279093785,-0.001314,False,,False,,,,,29
382.713,3.078283115999966,-0.97998046875,0.281005859375,-0.008056640625,25.251908396946565,-12.702290076335878,5.923664122137405,16973,-524,-1,-13.28188971360234,11006.832279093785,-0.001314,False,,False,,,,,29
382.713,3.080286667999985,-0.97998046875,0.281005859375,-0.008056640625,25.251908396946565,-12.702290076335878,5.923664122137405,16973,-524,-1,-13.28188971360234,11006.832279093785,-0.001314,False,,False,,,,,29
382.718,3.0822883140000386,-0.99658203125,0.300048828125,-0.012939453125,23.938931297709924,-11.908396946564885,6.931297709923664,16854,-521,1,-13.576048649149214,11004.759664519774,0.001314,False,,False,,,,,29
382.718,3.0842900139999756,-0.99658203125,0.300048828125,-0.012939453125,23.938931297709924,-11.908396946564885,6.931297709923664,16854,-521,1,-13.576048649149214,11004.759664519774,0.001314,False,,False,,,,,29
382.723,3.0862922699999444,-0.992919921875,0.279541015625,-0.02197265625,23.84732824427481,-11.969465648854962,6.625954198473282,16736,-515,-1,-13.867735660867964,11002.79421000447,-0.001314,False,,False,,,,,29
382.723,3.0882908979999684,-0.992919921875,0.279541015625,-0.02197265625,23.84732824427481,-11.969465648854962,6.625954198473282,16736,-515,-1,-13.867735660867964,11002.79421000447,-0.001314,False,,False,,,,,29
382.723,3.0902946899999506,-0.992919921875,0.279541015625,-0.02197265625,23.84732824427481,-11.969465648854962,6.625954198473282,16736,-515,-1,-13.867735660867964,11002.79421000447,-0.001314,False,,False,,,,,29
382.728,3.0922962619999907,-1.011962890625,0.2880859375,-0.025390625,25.038167938931295,-11.053435114503817,7.450381679389313,16623,-496,-1,-14.14706305344609,11000.959474454381,-0.001314,False,,False,,,,,29
382.728,3.094296277000012,-1.011962890625,0.2880859375,-0.025390625,25.038167938931295,-11.053435114503817,7.450381679389313,16623,-496,-1,-14.14706305344609,11000.959474454381,-0.001314,False,,False,,,,,29
382.733,3.0963018109999894,-1.020263671875,0.258056640625,-0.03271484375,23.84732824427481,-9.648854961832061,7.603053435114504,16507,-503,-1,-14.43380621750859,10999.275077768083,-0.001314,False,,False,,,,,29
382.733,3.0983011600000054,-1.020263671875,0.258056640625,-0.03271484375,23.84732824427481,-9.648854961832061,7.603053435114504,16507,-503,-1,-14.43380621750859,10999.275077768083,-0.001314,False,,False,,,,,29
382.733,3.1003342249999832,-1.020263671875,0.258056640625,-0.03271484375,23.84732824427481,-9.648854961832061,7.603053435114504,16507,-503,-1,-14.43380621750859,10999.275077768083,-0.001314,False,,False,,,,,29
382.738,3.102304505999996,-1.030029296875,0.273681640625,-0.03173828125,22.564885496183205,-8.15267175572519,8.580152671755725,16396,-491,2,-14.708189762430464,10997.74810543006,0.002628,False,,False,,,,,29
382.738,3.1043045589999565,-1.030029296875,0.273681640625,-0.03173828125,22.564885496183205,-8.15267175572519,8.580152671755725,16396,-491,2,-14.708189762430464,10997.74810543006,0.002628,False,,False,,,,,29
382.743,3.1063061109999808,-1.0224609375,0.2470703125,-0.03759765625,21.2824427480916,-7.419847328244274,7.816793893129771,16290,-461,-5,-14.970213688211714,10996.39653274784,-0.0065699999999999995,False,,False,,,,,29
382.743,3.1083065899999838,-1.0224609375,0.2470703125,-0.03759765625,21.2824427480916,-7.419847328244274,7.816793893129771,16290,-461,-5,-14.970213688211714,10996.39653274784,-0.0065699999999999995,False,,False,,,,,29
382.743,3.1103085500000134,-1.0224609375,0.2470703125,-0.03759765625,21.2824427480916,-7.419847328244274,7.816793893129771,16290,-461,-5,-14.970213688211714,10996.39653274784,-0.0065699999999999995,False,,False,,,,,29
382.748,3.112309491000019,-1.02978515625,0.257080078125,-0.0263671875,22.931297709923662,-6.595419847328244,7.236641221374046,16192,-425,0,-15.212462223367964,10995.25256289813,0.0,False,,False,,,,,29
382.748,3.114310858999943,-1.02978515625,0.257080078125,-0.0263671875,22.931297709923662,-6.595419847328244,7.236641221374046,16192,-425,0,-15.212462223367964,10995.25256289813,0.0,False,,False,,,,,29
382.753,3.1163125589999936,-1.03125,0.259765625,-0.02197265625,22.412213740458014,-6.045801526717557,7.083969465648854,16098,-408,0,-15.444823063211714,10994.34372931255,0.0,False,,False,,,,,29
382.753,3.118313759999978,-1.03125,0.259765625,-0.02197265625,22.412213740458014,-6.045801526717557,7.083969465648854,16098,-408,0,-15.444823063211714,10994.34372931255,0.0,False,,False,,,,,29
382.753,3.120315830999971,-1.03125,0.259765625,-0.02197265625,22.412213740458014,-6.045801526717557,7.083969465648854,16098,-408,0,-15.444823063211714,10994.34372931255,0.0,False,,False,,,,,29
382.758,3.1223169390000294,-1.02734375,0.2568359375,-0.0224609375,21.893129770992367,-6.290076335877862,6.8396946564885495,16014,-379,-2,-15.652464664774214,10993.691466624372,-0.002628,False,,False,,,,,29
382.758,3.1243184730000166,-1.02734375,0.2568359375,-0.0224609375,21.893129770992367,-6.290076335877862,6.8396946564885495,16014,-379,-2,-15.652464664774214,10993.691466624372,-0.002628,False,,False,,,,,29
382.76300000000003,3.1263214150000067,-1.02490234375,0.2705078125,-0.02099609375,20.244274809160306,-4.916030534351145,7.450381679389313,15930,-368,-2,-15.860106266336714,10993.306421634183,-0.002628,False,,False,,,,,29
382.76300000000003,3.128321819000007,-1.02490234375,0.2705078125,-0.02099609375,20.244274809160306,-4.916030534351145,7.450381679389313,15930,-368,-2,-15.860106266336714,10993.306421634183,-0.002628,False,,False,,,,,29
382.76300000000003,3.1303240940000023,-1.02490234375,0.2705078125,-0.02099609375,20.244274809160306,-4.916030534351145,7.450381679389313,15930,-368,-2,-15.860106266336714,10993.306421634183,-0.002628,False,,False,,,,,29
382.76800000000003,3.1323247760000186,-1.022216796875,0.280517578125,-0.022216796875,21.98473282442748,-5.770992366412213,5.770992366412213,15856,-320,5,-16.043028629617964,10993.186474521819,0.0065699999999999995,False,,False,,,,,29
382.76800000000003,3.134326494999982,-1.022216796875,0.280517578125,-0.022216796875,21.98473282442748,-5.770992366412213,5.770992366412213,15856,-320,5,-16.043028629617964,10993.186474521819,0.0065699999999999995,False,,False,,,,,29
382.773,3.1363283260000117,-1.0126953125,0.265380859375,-0.0263671875,22.77862595419847,-6.931297709923664,4.916030534351145,15790,-284,4,-16.206175602274214,10993.340334246643,0.005256,False,,False,,,,,29
382.773,3.1383287669999618,-1.0126953125,0.265380859375,-0.0263671875,22.77862595419847,-6.931297709923664,4.916030534351145,15790,-284,4,-16.206175602274214,10993.340334246643,0.005256,False,,False,,,,,29
382.773,3.1403303939999887,-1.0126953125,0.265380859375,-0.0263671875,22.77862595419847,-6.931297709923664,4.916030534351145,15790,-284,4,-16.206175602274214,10993.340334246643,0.005256,False,,False,,,,,29
382.778,3.1423319470000024,-1.01806640625,0.24853515625,-0.0322265625,22.931297709923662,-7.32824427480916,3.3587786259541983,15735,-239,0,-16.34213141282109,10993.787439762495,0.0,False,,False,,,,,29
382.778,3.1443351469999925,-1.01806640625,0.24853515625,-0.0322265625,22.931297709923662,-7.32824427480916,3.3587786259541983,15735,-239,0,-16.34213141282109,10993.787439762495,0.0,False,,False,,,,,29
382.783,3.14633508899999,-1.02734375,0.27099609375,-0.02099609375,21.31297709923664,-6.259541984732824,3.480916030534351,15684,-218,0,-16.468199528055464,10994.534445320449,0.0,False,,False,,,,,29
382.783,3.1483368259999907,-1.02734375,0.27099609375,-0.02099609375,21.31297709923664,-6.259541984732824,3.480916030534351,15684,-218,0,-16.468199528055464,10994.534445320449,0.0,False,,False,,,,,29
382.783,3.150338194000028,-1.02734375,0.27099609375,-0.02099609375,21.31297709923664,-6.259541984732824,3.480916030534351,15684,-218,0,-16.468199528055464,10994.534445320449,0.0,False,,False,,,,,29
382.788,3.1523391539999466,-0.9912109375,0.258544921875,-0.0361328125,19.32824427480916,-5.6183206106870225,1.8015267175572518,15632,-218,-4,-16.596739567117964,10995.553929100985,-0.005256,False,,False,,,,,29
382.788,3.154340151000042,-0.9912109375,0.258544921875,-0.0361328125,19.32824427480916,-5.6183206106870225,1.8015267175572518,15632,-218,-4,-16.596739567117964,10995.553929100985,-0.005256,False,,False,,,,,29
382.793,3.156342110999958,-1.009033203125,0.3173828125,-0.01904296875,18.748091603053435,-4.244274809160305,2.6564885496183206,15585,-213,-5,-16.71291998703984,10996.79929119675,-0.0065699999999999995,False,,False,,,,,29
