state_time,loop_time,accel_x,accel_y,accel_z,gyro_x,gyro_y,gyro_z,motor_angle,motor_velocity,motor_current,hip_angle,hip_velocity,hip_torque_from_current,did_heel_strike,gait_phase,did_toe_off,commanded_current,commanded_position,commanded_torque,commanded_voltage,temperature
608.736,1.3833685710000054,0.94677734375,0.290771484375,-0.001953125,5.374045801526718,3.633587786259542,-1.2213740458015268,23173,5,0,2.800579426077868,2.1331568502352383,0.0,False,,False,,,,,30
608.741,1.3853691219999291,0.946044921875,0.28564453125,-0.00341796875,5.312977099236641,3.6030534351145036,-1.282442748091603,23174,6,3,2.798107502249743,-41.30917352168765,0.003942,False,,False,,,,,29
608.741,1.3873708950000037,0.946044921875,0.28564453125,-0.00341796875,5.312977099236641,3.6030534351145036,-1.282442748091603,23174,6,3,2.798107502249743,-41.30917352168765,0.003942,False,,False,,,,,29
608.746,1.3893724269998984,0.94482421875,0.289306640625,-0.000732421875,5.2824427480916025,3.6030534351145036,-1.2213740458015268,23174,1,5,2.798107502249743,-207.6404494559424,0.0065699999999999995,False,,False,,,,,29
608.746,1.391372681000007,0.94482421875,0.289306640625,-0.000732421875,5.2824427480916025,3.6030534351145036,-1.2213740458015268,23174,1,5,2.798107502249743,-207.6404494559424,0.0065699999999999995,False,,False,,,,,29
608.746,1.393375547000005,0.94482421875,0.289306640625,-0.000732421875,5.2824427480916025,3.6030534351145036,-1.2213740458015268,23174,1,5,2.798107502249743,-207.6404494559424,0.0065699999999999995,False,,False,,,,,29
608.751,1.3953768749998972,0.952392578125,0.284423828125,-0.001953125,5.129770992366412,3.6946564885496183,-1.4045801526717556,23174,-8,4,2.798107502249743,-517.9633595237975,0.005256,False,,False,,,,,30
608.751,1.3973773519999213,0.952392578125,0.284423828125,-0.001953125,5.129770992366412,3.6946564885496183,-1.4045801526717556,23174,-8,4,2.798107502249743,-517.9633595237975,0.005256,False,,False,,,,,30
608.756,1.399381013999914,0.950439453125,0.28515625,0.0009765625,5.068702290076335,3.6030534351145036,-1.3129770992366412,23174,-2,9,2.798107502249743,-944.3360701303001,0.011826,False,,False,,,,,30
608.756,1.4013803240000016,0.950439453125,0.28515625,0.0009765625,5.068702290076335,3.6030534351145036,-1.3129770992366412,23174,-2,9,2.798107502249743,-944.3360701303001,0.011826,False,,False,,,,,30
608.756,1.4033824669999149,0.950439453125,0.28515625,0.0009765625,5.068702290076335,3.6030534351145036,-1.3129770992366412,23174,-2,9,2.798107502249743,-944.3360701303001,0.011826,False,,False,,,,,30
608.761,1.4053838699999233,0.947265625,0.282470703125,0.001708984375,5.038167938931298,3.633587786259542,-1.465648854961832,23173,-2,1,2.800579426077868,-1461.6850092176182,0.001314,False,,False,,,,,29
608.761,1.4073853840000083,0.947265625,0.282470703125,0.001708984375,5.038167938931298,3.633587786259542,-1.465648854961832,23173,-2,1,2.800579426077868,-1461.6850092176182,0.001314,False,,False,,,,,29
608.766,1.4093872859999692,0.948974609375,0.27685546875,-0.0009765625,4.854961832061068,3.1755725190839694,-1.3435114503816794,23174,-7,3,2.798107502249743,-2047.7028851317089,0.003942,False,,False,,,,,29
608.766,1.4113875589999907,0.948974609375,0.27685546875,-0.0009765625,4.854961832061068,3.1755725190839694,-1.3435114503816794,23174,-7,3,2.798107502249743,-2047.7028851317089,0.003942,False,,False,,,,,29
608.766,1.4133900909999966,0.948974609375,0.27685546875,-0.0009765625,4.854961832061068,3.1755725190839694,-1.3435114503816794,23174,-7,3,2.798107502249743,-2047.7028851317089,0.003942,False,,False,,,,,29
608.771,1.4153915859999415,0.951904296875,0.27392578125,-0.002685546875,4.763358778625954,3.480916030534351,-1.3740458015267174,23175,3,6,2.795635578421618,-2682.72502604647,0.007884,False,,False,,,,,29
608.771,1.417392710999934,0.951904296875,0.27392578125,-0.002685546875,4.763358778625954,3.480916030534351,-1.3740458015267174,23175,3,6,2.795635578421618,-2682.72502604647,0.007884,False,,False,,,,,29
608.7760000000001,1.419397076999985,0.960205078125,0.276123046875,-0.004638671875,4.2748091603053435,3.0839694656488548,-1.5572519083969465,23175,-3,3,2.795635578421618,-3349.5750371589706,0.003942,False,,False,,,,,29
608.7760000000001,1.4213959609999165,0.960205078125,0.276123046875,-0.004638671875,4.2748091603053435,3.0839694656488548,-1.5572519083969465,23175,-3,3,2.795635578421618,-3349.5750371589706,0.003942,False,,False,,,,,29
608.7760000000001,1.4233975669999381,0.960205078125,0.276123046875,-0.004638671875,4.2748091603053435,3.0839694656488548,-1.5572519083969465,23175,-3,3,2.795635578421618,-3349.5750371589706,0.003942,False,,False,,,,,29
608.7810000000001,1.4253992099999095,0.956298828125,0.2734375,-0.00439453125,4.213740458015267,2.8702290076335877,-1.618320610687023,23174,0,-1,2.798107502249743,-4033.4049122521837,-0.001314,False,,False,,,,,29
608.7810000000001,1.4274006679999047,0.956298828125,0.2734375,-0.00439453125,4.213740458015267,2.8702290076335877,-1.618320610687023,23174,0,-1,2.798107502249743,-4033.4049122521837,-0.001314,False,,False,,,,,29
608.7860000000001,1.4294038299999556,0.96044921875,0.27001953125,-0.0048828125,4.091603053435114,2.8396946564885495,-1.648854961832061,23175,-4,2,2.795635578421618,-4721.54177133577,0.002628,False,,False,,,,,29
608.7860000000001,1.4314028999999664,0.96044921875,0.27001953125,-0.0048828125,4.091603053435114,2.8396946564885495,-1.648854961832061,23175,-4,2,2.795635578421618,-4721.54177133577,0.002628,False,,False,,,,,29
608.7860000000001,1.4334042279999721,0.96044921875,0.27001953125,-0.0048828125,4.091603053435114,2.8396946564885495,-1.648854961832061,23175,-4,2,2.795635578421618,-4721.54177133577,0.002628,False,,False,,,,,29
608.791,1.4354059449999568,0.96240234375,0.266845703125,-0.00146484375,3.969465648854962,2.748091603053435,-1.83206106870229,23173,-8,2,2.800579426077868,-5403.315508220205,0.002628,False,,False,,,,,29
608.791,1.4374075700000049,0.96240234375,0.266845703125,-0.00146484375,3.969465648854962,2.748091603053435,-1.83206106870229,23173,-8,2,2.800579426077868,-5403.315508220205,0.002628,False,,False,,,,,29
608.796,1.4394104539999262,0.9638671875,0.26123046875,0.00390625,3.2061068702290076,2.6564885496183206,-1.8015267175572518,23177,7,-5,2.790691730765368,-6069.889067602191,-0.0065699999999999995,False,,False,,,,,29
608.796,1.4414099489999899,0.9638671875,0.26123046875,0.00390625,3.2061068702290076,2.6564885496183206,-1.8015267175572518,23177,7,-5,2.790691730765368,-6069.889067602191,-0.0065699999999999995,False,,False,,,,,29
608.796,1.4434122959999058,0.9638671875,0.26123046875,0.00390625,3.2061068702290076,2.6564885496183206,-1.8015267175572518,23177,7,-5,2.790691730765368,-6069.889067602191,-0.0065699999999999995,False,,False,,,,,29
608.801,1.4454141429999936,0.961669921875,0.2578125,0.003662109375,2.900763358778626,2.381679389312977,-1.9236641221374045,23175,2,0,2.795635578421618,-6714.086220242378,0.0,False,,False,,,,,29
608.801,1.4474153049999359,0.961669921875,0.2578125,0.003662109375,2.900763358778626,2.381679389312977,-1.9236641221374045,23175,2,0,2.795635578421618,-6714.086220242378,0.0,False,,False,,,,,29
608.806,1.4494187450000027,0.9609375,0.25537109375,0.005859375,2.5038167938931295,2.4122137404580153,-1.83206106870229,23177,5,0,2.790691730765368,-7330.214367050207,0.0,False,,False,,,,,29
608.806,1.451417147999905,0.9609375,0.25537109375,0.005859375,2.5038167938931295,2.4122137404580153,-1.83206106870229,23177,5,0,2.790691730765368,-7330.214367050207,0.0,False,,False,,,,,29
608.806,1.4534239569999272,0.9609375,0.25537109375,0.005859375,2.5038167938931295,2.4122137404580153,-1.83206106870229,23177,5,0,2.790691730765368,-7330.214367050207,0.0,False,,False,,,,,29
608.811,1.455420803999914,0.966552734375,0.25244140625,0.00537109375,2.1374045801526718,1.984732824427481,-1.6793893129770991,23178,8,1,2.788219806937243,-7913.91976802987,0.001314,False,,False,,,,,29
608.811,1.457422039999983,0.966552734375,0.25244140625,0.00537109375,2.1374045801526718,1.984732824427481,-1.6793893129770991,23178,8,1,2.788219806937243,-7913.91976802987,0.001314,False,,False,,,,,29
608.816,1.4594244979999758,0.96337890625,0.25244140625,0.00537109375,1.2519083969465647,1.8625954198473282,-1.5267175572519083,23178,1,3,2.788219806937243,-8462.027251379453,0.003942,False,,False,,,,,29
608.816,1.461425196999926,0.96337890625,0.25244140625,0.00537109375,1.2519083969465647,1.8625954198473282,-1.5267175572519083,23178,1,3,2.788219806937243,-8462.027251379453,0.003942,False,,False,,,,,29
608.816,1.4634267109998973,0.96337890625,0.25244140625,0.00537109375,1.2519083969465647,1.8625954198473282,-1.5267175572519083,23178,1,3,2.788219806937243,-8462.027251379453,0.003942,False,,False,,,,,29
608.821,1.4654279469999665,0.96533203125,0.25634765625,0.003662109375,0.732824427480916,1.8625954198473282,-1.648854961832061,23179,3,4,2.785747883109118,-8972.388947295312,0.005256,False,,False,,,,,29
608.821,1.467429182999922,0.96533203125,0.25634765625,0.003662109375,0.732824427480916,1.8625954198473282,-1.648854961832061,23179,3,4,2.785747883109118,-8972.388947295312,0.005256,False,,False,,,,,29
608.826,1.4694307889999436,0.959228515625,0.25732421875,0.008544921875,0.3053435114503817,1.465648854961832,-1.5572519083969465,23180,3,2,2.783275959280993,-9443.758882983511,0.002628,False,,False,,,,,29
608.826,1.471431561999907,0.959228515625,0.25732421875,0.008544921875,0.3053435114503817,1.465648854961832,-1.5572519083969465,23180,3,2,2.783275959280993,-9443.758882983511,0.002628,False,,False,,,,,29
608.826,1.4734334089999948,0.959228515625,0.25732421875,0.008544921875,0.3053435114503817,1.465648854961832,-1.5572519083969465,23180,3,2,2.783275959280993,-9443.758882983511,0.002628,False,,False,,,,,29
608.831,1.4754348299999265,0.956787109375,0.261962890625,0.0029296875,0.0,1.2519083969465647,-1.465648854961832,23180,3,0,2.783275959280993,-9875.657025327837,0.0,False,,False,,,,,29
608.831,1.4774397509999062,0.956787109375,0.261962890625,0.0029296875,0.0,1.2519083969465647,-1.465648854961832,23180,3,0,2.783275959280993,-9875.657025327837,0.0,False,,False,,,,,29
608.836,1.47943769099993,0.951904296875,0.268798828125,0.00732421875,-0.8854961832061068,0.9465648854961831,-1.1908396946564885,23181,8,-4,2.780804035452868,-10268.251525964493,-0.005256,False,,False,,,,,29
608.836,1.4814384449999807,0.951904296875,0.268798828125,0.00732421875,-0.8854961832061068,0.9465648854961831,-1.1908396946564885,23181,8,-4,2.780804035452868,-10268.251525964493,-0.005256,False,,False,,,,,29
608.836,1.4834401999999045,0.951904296875,0.268798828125,0.00732421875,-0.8854961832061068,0.9465648854961831,-1.1908396946564885,23181,8,-4,2.780804035452868,-10268.251525964493,-0.005256,False,,False,,,,,29
608.841,1.4854412689999208,0.9482421875,0.271484375,0.0107421875,-0.8549618320610687,0.9770992366412213,-1.1603053435114503,23183,3,-1,2.775860187796618,-10622.257910961012,-0.001314,False,,False,,,,,29
608.841,1.487442097999974,0.9482421875,0.271484375,0.0107421875,-0.8549618320610687,0.9770992366412213,-1.1603053435114503,23183,3,-1,2.775860187796618,-10622.257910961012,-0.001314,False,,False,,,,,29
608.846,1.489443499999993,0.945556640625,0.27099609375,0.0087890625,-1.0076335877862594,0.7938931297709924,-1.0687022900763359,23181,-4,4,2.780804035452868,-10938.828849560057,0.005256,False,,False,,,,,29
608.846,1.4914445690000093,0.945556640625,0.27099609375,0.0087890625,-1.0076335877862594,0.7938931297709924,-1.0687022900763359,23181,-4,4,2.780804035452868,-10938.828849560057,0.005256,False,,False,,,,,29
608.846,1.4934491759998991,0.945556640625,0.27099609375,0.0087890625,-1.0076335877862594,0.7938931297709924,-1.0687022900763359,23181,-4,4,2.780804035452868,-10938.828849560057,0.005256,False,,False,,,,,29
608.851,1.4954478189999918,0.945068359375,0.271484375,0.009765625,-1.129770992366412,0.8549618320610687,-0.916030534351145,23182,3,2,2.778332111624743,-11219.466280845938,0.002628,False,,False,,,,,29
608.851,1.4974535179999293,0.945068359375,0.271484375,0.009765625,-1.129770992366412,0.8549618320610687,-0.916030534351145,23182,3,2,2.778332111624743,-11219.466280845938,0.002628,False,,False,,,,,29
608.856,1.4994498829998975,0.94384765625,0.275390625,0.013427734375,-1.5877862595419847,1.0381679389312977,-0.5801526717557252,23182,0,4,2.778332111624743,-11465.957112058994,0.005256,False,,False,,,,,29
608.856,1.501450785999964,0.94384765625,0.275390625,0.013427734375,-1.5877862595419847,1.0381679389312977,-0.5801526717557252,23182,0,4,2.778332111624743,-11465.957112058994,0.005256,False,,False,,,,,29
608.856,1.5034528549999777,0.94384765625,0.275390625,0.013427734375,-1.5877862595419847,1.0381679389312977,-0.5801526717557252,23182,0,4,2.778332111624743,-11465.957112058994,0.005256,False,,False,,,,,29
608.861,1.5054538129999173,0.94140625,0.275390625,0.01171875,-1.7709923664122136,1.3129770992366412,-0.3969465648854962,23184,6,2,2.773388263968493,-11680.295562602787,0.002628,False,,False,,,,,29
608.861,1.5074551229999997,0.94140625,0.275390625,0.01171875,-1.7709923664122136,1.3129770992366412,-0.3969465648854962,23184,6,2,2.773388263968493,-11680.295562602787,0.002628,False,,False,,,,,29
608.866,1.5094595439999239,0.94287109375,0.273681640625,0.013916015625,-2.229007633587786,1.3129770992366412,-0.33587786259541985,23182,0,-2,2.778332111624743,-11864.60977708482,-0.002628,False,,False,,,,,29
608.866,1.5114580949999663,0.94287109375,0.273681640625,0.013916015625,-2.229007633587786,1.3129770992366412,-0.33587786259541985,23182,0,-2,2.778332111624743,-11864.60977708482,-0.002628,False,,False,,,,,29
608.866,1.5134599419999404,0.94287109375,0.273681640625,0.013916015625,-2.229007633587786,1.3129770992366412,-0.33587786259541985,23182,0,-2,2.778332111624743,-11864.60977708482,-0.002628,False,,False,,,,,29
608.871,1.5154615669999885,0.942138671875,0.274169921875,0.012939453125,-2.1068702290076335,1.5572519083969465,-0.15267175572519084,23182,0,7,2.778332111624743,-12021.110980492183,0.009198,False,,False,,,,,29
608.871,1.5174630619999334,0.942138671875,0.274169921875,0.012939453125,-2.1068702290076335,1.5572519083969465,-0.15267175572519084,23182,0,7,2.778332111624743,-12021.110980492183,0.009198,False,,False,,,,,29
608.876,1.5194645759999048,0.941162109375,0.27490234375,0.012939453125,-2.687022900763359,1.7404580152671756,0.21374045801526717,23182,-5,5,2.778332111624743,-12152.060451299878,0.0065699999999999995,False,,False,,,,,29
608.876,1.521466051999937,0.941162109375,0.27490234375,0.012939453125,-2.687022900763359,1.7404580152671756,0.21374045801526717,23182,-5,5,2.778332111624743,-12152.060451299878,0.0065699999999999995,False,,False,,,,,29
608.876,1.5234682699999667,0.941162109375,0.27490234375,0.012939453125,-2.687022900763359,1.7404580152671756,0.21374045801526717,23182,-5,5,2.778332111624743,-12152.060451299878,0.0065699999999999995,False,,False,,,,,29
608.881,1.5254702459999407,0.939697265625,0.278564453125,0.011474609375,-2.8091603053435112,1.4961832061068703,0.33587786259541985,23181,-3,3,2.780804035452868,-12259.723241810241,0.003942,False,,False,,,,,29
608.881,1.5274705379999887,0.939697265625,0.278564453125,0.011474609375,-2.8091603053435112,1.4961832061068703,0.33587786259541985,23181,-3,3,2.780804035452868,-12259.723241810241,0.003942,False,,False,,,,,29
608.886,1.5294746439999471,0.943359375,0.279296875,0.011962890625,-2.381679389312977,1.3435114503816794,0.0,23183,0,0,2.775860187796618,-12346.33296000823,0.0,False,,False,,,,,29
608.886,1.5314737869999817,0.943359375,0.279296875,0.011962890625,-2.381679389312977,1.3435114503816794,0.0,23183,0,0,2.775860187796618,-12346.33296000823,0.0,False,,False,,,,,29
608.886,1.5334753939999928,0.943359375,0.279296875,0.011962890625,-2.381679389312977,1.3435114503816794,0.0,23183,0,0,2.775860187796618,-12346.33296000823,0.0,False,,False,,,,,29
608.891,1.5354764439999826,0.941162109375,0.27294921875,0.009033203125,-2.5038167938931295,1.5877862595419847,-0.24427480916030533,23181,-3,-2,2.780804035452868,-12414.064531606258,-0.002628,False,,False,,,,,29
608.891,1.5374772909999592,0.941162109375,0.27294921875,0.009033203125,-2.5038167938931295,1.5877862595419847,-0.24427480916030533,23181,-3,-2,2.780804035452868,-12414.064531606258,-0.002628,False,,False,,,,,29
608.896,1.5394815269999071,0.944580078125,0.26123046875,-0.00244140625,-3.6030534351145036,2.1374045801526718,-0.42748091603053434,23182,-1,4,2.778332111624743,-12465.006875529407,0.005256,False,,False,,,,,29
608.896,1.5414802450000025,0.944580078125,0.26123046875,-0.00244140625,-3.6030534351145036,2.1374045801526718,-0.42748091603053434,23182,-1,4,2.778332111624743,-12465.006875529407,0.005256,False,,False,,,,,29
608.896,1.5434818879999739,0.944580078125,0.26123046875,-0.00244140625,-3.6030534351145036,2.1374045801526718,-0.42748091603053434,23182,-1,4,2.778332111624743,-12465.006875529407,0.005256,False,,False,,,,,29
608.9010000000001,1.5454834759999585,0.963134765625,0.259033203125,-0.000244140625,-3.6030534351145036,1.6793893129770991,-0.5801526717557252,23181,0,4,2.780804035452868,-12501.15559832214,0.005256,False,,False,,,,,29
608.9010000000001,1.547484155999996,0.963134765625,0.259033203125,-0.000244140625,-3.6030534351145036,1.6793893129770991,-0.5801526717557252,23181,0,4,2.780804035452868,-12501.15559832214,0.005256,False,,False,,,,,29
608.9060000000001,1.5494872989999067,0.95849609375,0.252685546875,-0.0078125,-4.305343511450381,1.7099236641221374,-0.916030534351145,23181,-3,3,2.780804035452868,-12524.395696303363,0.003942,False,,False,,,,,29
608.9060000000001,1.5514868499999466,0.95849609375,0.252685546875,-0.0078125,-4.305343511450381,1.7099236641221374,-0.916030534351145,23181,-3,3,2.780804035452868,-12524.395696303363,0.003942,False,,False,,,,,29
608.9060000000001,1.5534884189999048,0.95849609375,0.252685546875,-0.0078125,-4.305343511450381,1.7099236641221374,-0.916030534351145,23181,-3,3,2.780804035452868,-12524.395696303363,0.003942,False,,False,,,,,29
608.9110000000001,1.5554894699999977,0.966552734375,0.255615234375,-0.005126953125,-5.068702290076335,1.099236641221374,-0.916030534351145,23182,5,6,2.778332111624743,-12536.494048021545,0.007884,False,,False,,,,,29
608.9110000000001,1.5574908539999797,0.966552734375,0.255615234375,-0.005126953125,-5.068702290076335,1.099236641221374,-0.916030534351145,23182,5,6,2.778332111624743,-12536.494048021545,0.007884,False,,False,,,,,29
608.916,1.5594957380000096,0.970947265625,0.26953125,-0.00634765625,-5.9541984732824424,0.3053435114503817,-0.732824427480916,23182,-4,7,2.778332111624743,-12539.093049707564,0.009198,False,,False,,,,,29
608.916,1.5614945300000045,0.970947265625,0.26953125,-0.00634765625,-5.9541984732824424,0.3053435114503817,-0.732824427480916,23182,-4,7,2.778332111624743,-12539.093049707564,0.009198,False,,False,,,,,29
608.916,1.5634961539999495,0.970947265625,0.26953125,-0.00634765625,-5.9541984732824424,0.3053435114503817,-0.732824427480916,23182,-4,7,2.778332111624743,-12539.093049707564,0.009198,False,,False,,,,,29
608.921,1.565496760999963,0.965087890625,0.27294921875,-0.000732421875,-5.923664122137405,-0.15267175572519084,-1.129770992366412,23183,0,6,2.775860187796618,-12533.701718822344,0.007884,False,,False,,,,,29
608.921,1.5674978119999423,0.965087890625,0.27294921875,-0.000732421875,-5.923664122137405,-0.15267175572519084,-1.129770992366412,23183,0,6,2.775860187796618,-12533.701718822344,0.007884,False,,False,,,,,29
608.926,1.5695017509999616,0.9599609375,0.275634765625,-0.003662109375,-6.3206106870229,-0.183206106870229,-1.1603053435114503,23183,-2,6,2.775860187796618,-12521.699130854682,0.007884,False,,False,,,,,29
608.926,1.5715011349999486,0.9599609375,0.275634765625,-0.003662109375,-6.3206106870229,-0.183206106870229,-1.1603053435114503,23183,-2,6,2.775860187796618,-12521.699130854682,0.007884,False,,False,,,,,29
608.926,1.573502889999986,0.9599609375,0.275634765625,-0.003662109375,-6.3206106870229,-0.183206106870229,-1.1603053435114503,23183,-2,6,2.775860187796618,-12521.699130854682,0.007884,False,,False,,,,,29
608.931,1.5755046250000078,0.966796875,0.277099609375,0.0068359375,-6.625954198473282,-0.6106870229007634,-1.3740458015267174,23182,-8,10,2.778332111624743,-12504.332016961425,0.013139999999999999,False,,False,,,,,29
608.931,1.5775066579999475,0.966796875,0.277099609375,0.0068359375,-6.625954198473282,-0.6106870229007634,-1.3740458015267174,23182,-8,10,2.778332111624743,-12504.332016961425,0.013139999999999999,False,,False,,,,,29
608.936,1.57951054199998,0.957763671875,0.276611328125,0.0068359375,-7.480916030534351,-0.42748091603053434,-1.4961832061068703,23182,0,0,2.778332111624743,-12482.72183200866,0.0,False,,False,,,,,29
608.936,1.5815146479999385,0.957763671875,0.276611328125,0.0068359375,-7.480916030534351,-0.42748091603053434,-1.4961832061068703,23182,0,0,2.778332111624743,-12482.72183200866,0.0,False,,False,,,,,29
608.936,1.5835116799999014,0.957763671875,0.276611328125,0.0068359375,-7.480916030534351,-0.42748091603053434,-1.4961832061068703,23182,0,0,2.778332111624743,-12482.72183200866,0.0,False,,False,,,,,29
608.941,1.5855128239999203,0.95751953125,0.28125,0.006103515625,-7.969465648854961,-0.7022900763358778,-1.3435114503816794,23182,0,3,2.778332111624743,-12457.874277153574,0.003942,False,,False,,,,,29
608.941,1.5875144109999155,0.95751953125,0.28125,0.006103515625,-7.969465648854961,-0.7022900763358778,-1.3435114503816794,23182,0,3,2.778332111624743,-12457.874277153574,0.003942,False,,False,,,,,29
608.946,1.5895174620000034,0.955078125,0.29052734375,0.011474609375,-8.183206106870228,-0.916030534351145,-1.099236641221374,23182,0,6,2.778332111624743,-12430.678205842545,0.007884,False,,False,,,,,29
608.946,1.5915170869999429,0.955078125,0.29052734375,0.011474609375,-8.183206106870228,-0.916030534351145,-1.099236641221374,23182,0,6,2.778332111624743,-12430.678205842545,0.007884,False,,False,,,,,29
608.946,1.5935194339999725,0.955078125,0.29052734375,0.011474609375,-8.183206106870228,-0.916030534351145,-1.099236641221374,23182,0,6,2.778332111624743,-12430.678205842545,0.007884,False,,False,,,,,29
608.951,1.5955200769999465,0.951171875,0.302001953125,0.012451171875,-8.213740458015266,-0.9770992366412213,-0.9770992366412213,23181,-1,3,2.780804035452868,-12401.908191177745,0.003942,False,,False,,,,,29
608.951,1.597521682999968,0.951171875,0.302001953125,0.012451171875,-8.213740458015266,-0.9770992366412213,-0.9770992366412213,23181,-1,3,2.780804035452868,-12401.908191177745,0.003942,False,,False,,,,,29
608.956,1.5995267710000007,0.947265625,0.30908203125,0.014404296875,-7.816793893129771,-0.6106870229007634,-0.8244274809160305,23181,2,4,2.780804035452868,-12372.235492834066,0.005256,False,,False,,,,,29
608.956,1.6015245439999717,0.947265625,0.30908203125,0.014404296875,-7.816793893129771,-0.6106870229007634,-0.8244274809160305,23181,2,4,2.780804035452868,-12372.235492834066,0.005256,False,,False,,,,,29
608.956,1.6035262240000066,0.947265625,0.30908203125,0.014404296875,-7.816793893129771,-0.6106870229007634,-0.8244274809160305,23181,2,4,2.780804035452868,-12372.235492834066,0.005256,False,,False,,,,,29
608.961,1.605526700999917,0.942626953125,0.3134765625,0.015380859375,-7.908396946564885,-0.12213740458015267,-0.916030534351145,23181,-3,4,2.780804035452868,-12342.238735034065,0.005256,False,,False,,,,,29
608.961,1.6075282519999519,0.942626953125,0.3134765625,0.015380859375,-7.908396946564885,-0.12213740458015267,-0.916030534351145,23181,-3,4,2.780804035452868,-12342.238735034065,0.005256,False,,False,,,,,29
608.966,1.6095313019999367,0.938720703125,0.30859375,0.01708984375,-8.0,0.2748091603053435,-0.6412213740458015,23181,-2,3,2.780804035452868,-12312.40702592041,0.003942,False,,False,,,,,29
608.966,1.611530872000003,0.938720703125,0.30859375,0.01708984375,-8.0,0.2748091603053435,-0.6412213740458015,23181,-2,3,2.780804035452868,-12312.40702592041,0.003942,False,,False,,,,,29
608.966,1.6135327739999639,0.938720703125,0.30859375,0.01708984375,-8.0,0.2748091603053435,-0.6412213740458015,23181,-2,3,2.780804035452868,-12312.40702592041,0.003942,False,,False,,,,,29
608.971,1.6155333989999008,0.9384765625,0.309326171875,0.019287109375,-8.061068702290076,0.7022900763358778,-0.6106870229007634,23182,2,-1,2.778332111624743,-12283.147446840521,-0.001314,False,,False,,,,,29
608.971,1.6175356909999437,0.9384765625,0.309326171875,0.019287109375,-8.061068702290076,0.7022900763358778,-0.6106870229007634,23182,2,-1,2.778332111624743,-12283.147446840521,-0.001314,False,,False,,,,,29
608.976,1.6195376489999944,0.931396484375,0.311767578125,0.01513671875,-8.366412213740457,1.0381679389312977,-0.2748091603053435,23182,0,3,2.778332111624743,-12254.79251053795,0.003942,False,,False,,,,,29
608.976,1.6215380509999022,0.931396484375,0.311767578125,0.01513671875,-8.366412213740457,1.0381679389312977,-0.2748091603053435,23182,0,3,2.778332111624743,-12254.79251053795,0.003942,False,,False,,,,,29
608.976,1.6235399720000032,0.931396484375,0.311767578125,0.01513671875,-8.366412213740457,1.0381679389312977,-0.2748091603053435,23182,0,3,2.778332111624743,-12254.79251053795,0.003942,False,,False,,,,,29
608.981,1.6255411339999455,0.928955078125,0.312744140625,0.0146484375,-8.0,1.1603053435114503,-0.0916030534351145,23182,-5,3,2.778332111624743,-12227.60390425998,0.003942,False,,False,,,,,29
608.981,1.6275422219999882,0.928955078125,0.312744140625,0.0146484375,-8.0,1.1603053435114503,-0.0916030534351145,23182,-5,3,2.778332111624743,-12227.60390425998,0.003942,False,,False,,,,,29
608.986,1.6295455129999254,0.929443359375,0.310302734375,0.010498046875,-7.633587786259541,1.282442748091603,-0.0916030534351145,23182,1,4,2.778332111624743,-12201.783811464844,0.005256,False,,False,,,,,29
608.986,1.6315446939998992,0.929443359375,0.310302734375,0.010498046875,-7.633587786259541,1.282442748091603,-0.0916030534351145,23182,1,4,2.778332111624743,-12201.783811464844,0.005256,False,,False,,,,,29
608.986,1.633546540999987,0.929443359375,0.310302734375,0.010498046875,-7.633587786259541,1.282442748091603,-0.0916030534351145,23182,1,4,2.778332111624743,-12201.783811464844,0.005256,False,,False,,,,,29
608.991,1.6355484619999743,0.9248046875,0.309814453125,0.010986328125,-7.419847328244274,1.648854961832061,0.12213740458015267,23182,2,0,2.778332111624743,-12177.483461658194,0.0,False,,False,,,,,29
608.991,1.6375494569999773,0.9248046875,0.309814453125,0.010986328125,-7.419847328244274,1.648854961832061,0.12213740458015267,23182,2,0,2.778332111624743,-12177.483461658194,0.0,False,,False,,,,,29
608.996,1.6395522299999357,0.92626953125,0.308837890625,0.0078125,-6.900763358778626,1.6793893129770991,0.3969465648854962,23181,-2,-2,2.780804035452868,-12154.805654802765,-0.002628,False,,False,,,,,29
608.996,1.6415525029999571,0.92626953125,0.308837890625,0.0078125,-6.900763358778626,1.6793893129770991,0.3969465648854962,23181,-2,-2,2.780804035452868,-12154.805654802765,-0.002628,False,,False,,,,,29
608.996,1.6435539799999788,0.92626953125,0.308837890625,0.0078125,-6.900763358778626,1.6793893129770991,0.3969465648854962,23181,-2,-2,2.780804035452868,-12154.805654802765,-0.002628,False,,False,,,,,29
609.001,1.6455553449999343,0.92919921875,0.311767578125,0.00830078125,-6.625954198473282,1.465648854961832,0.5190839694656488,23181,-3,0,2.780804035452868,-12133.812947805854,0.0,False,,False,,,,,29
609.001,1.6475561739999875,0.92919921875,0.311767578125,0.00830078125,-6.625954198473282,1.465648854961832,0.5190839694656488,23181,-3,0,2.780804035452868,-12133.812947805854,0.0,False,,False,,,,,29
609.006,1.6495600209999566,0.935791015625,0.30908203125,0.013671875,-5.740458015267175,1.1603053435114503,0.33587786259541985,23182,2,-3,2.778332111624743,-12114.538672094877,-0.003942,False,,False,,,,,29
609.006,1.6515592380000044,0.935791015625,0.30908203125,0.013671875,-5.740458015267175,1.1603053435114503,0.33587786259541985,23182,2,-3,2.778332111624743,-12114.538672094877,-0.003942,False,,False,,,,,29
609.006,1.653561047999915,0.935791015625,0.30908203125,0.013671875,-5.740458015267175,1.1603053435114503,0.33587786259541985,23182,2,-3,2.778332111624743,-12114.538672094877,-0.003942,False,,False,,,,,29
609.011,1.6555629139999155,0.93310546875,0.2998046875,0.008544921875,-5.709923664122138,1.465648854961832,0.183206106870229,23181,-8,3,2.780804035452868,-12096.984047181819,0.003942,False,,False,,,,,30
609.011,1.6575641309999583,0.93310546875,0.2998046875,0.008544921875,-5.709923664122138,1.465648854961832,0.183206106870229,23181,-8,3,2.780804035452868,-12096.984047181819,0.003942,False,,False,,,,,30
609.016,1.6595689219999485,0.947265625,0.283203125,0.005615234375,-5.648854961832061,1.618320610687023,-0.183206106870229,23181,-5,8,2.780804035452868,-12081.11981039721,0.010512,False,,False,,,,,30
609.016,1.6615678059999937,0.947265625,0.283203125,0.005615234375,-5.648854961832061,1.618320610687023,-0.183206106870229,23181,-5,8,2.780804035452868,-12081.11981039721,0.010512,False,,False,,,,,30
609.016,1.6635698389999334,0.947265625,0.283203125,0.005615234375,-5.648854961832061,1.618320610687023,-0.183206106870229,23181,-5,8,2.780804035452868,-12081.11981039721,0.010512,False,,False,,,,,30
609.021,1.6655712969999286,0.9482421875,0.27587890625,0.0078125,-5.83206106870229,1.4351145038167938,-0.3053435114503817,23182,5,11,2.778332111624743,-12066.902346893852,0.014454,False,,False,,,,,29
609.021,1.6675724030000083,0.9482421875,0.27587890625,0.0078125,-5.83206106870229,1.4351145038167938,-0.3053435114503817,23182,5,11,2.778332111624743,-12066.902346893852,0.014454,False,,False,,,,,29
609.0260000000001,1.6695752869999296,0.958740234375,0.272216796875,0.00537109375,-6.412213740458015,1.3435114503816794,-0.33587786259541985,23183,12,5,2.775860187796618,-12054.274867775885,0.0065699999999999995,False,,False,,,,,29
609.0260000000001,1.6715759119999802,0.958740234375,0.272216796875,0.00537109375,-6.412213740458015,1.3435114503816794,-0.33587786259541985,23183,12,5,2.775860187796618,-12054.274867775885,0.0065699999999999995,False,,False,,,,,29
609.0260000000001,1.6735764999999674,0.958740234375,0.272216796875,0.00537109375,-6.412213740458015,1.3435114503816794,-0.33587786259541985,23183,12,5,2.775860187796618,-12054.274867775885,0.0065699999999999995,False,,False,,,,,29
609.0310000000001,1.6755783099999917,0.957275390625,0.2783203125,0.002685546875,-7.083969465648854,1.099236641221374,-0.21374045801526717,23181,-5,5,2.780804035452868,-12043.157844232632,0.0065699999999999995,False,,False,,,,,29
609.0310000000001,1.6775805449999552,0.957275390625,0.2783203125,0.002685546875,-7.083969465648854,1.099236641221374,-0.21374045801526717,23181,-5,5,2.780804035452868,-12043.157844232632,0.0065699999999999995,False,,False,,,,,29
609.0360000000001,1.6795827629999849,0.9560546875,0.283447265625,0.007080078125,-7.175572519083969,0.366412213740458,-0.48854961832061067,23181,-3,5,2.780804035452868,-12033.459233640557,0.0065699999999999995,False,,False,,,,,29
609.0360000000001,1.6815833319999456,0.9560546875,0.283447265625,0.007080078125,-7.175572519083969,0.366412213740458,-0.48854961832061067,23181,-3,5,2.780804035452868,-12033.459233640557,0.0065699999999999995,False,,False,,,,,29
609.0360000000001,1.6835851049999064,0.9560546875,0.283447265625,0.007080078125,-7.175572519083969,0.366412213740458,-0.48854961832061067,23181,-3,5,2.780804035452868,-12033.459233640557,0.0065699999999999995,False,,False,,,,,29
609.041,1.685587099999907,0.950927734375,0.290771484375,0.007568359375,-7.450381679389313,0.5190839694656488,-0.6412213740458015,23181,-3,-1,2.780804035452868,-12025.09038396508,-0.001314,False,,False,,,,,29
609.041,1.6875869659999125,0.950927734375,0.290771484375,0.007568359375,-7.450381679389313,0.5190839694656488,-0.6412213740458015,23181,-3,-1,2.780804035452868,-12025.09038396508,-0.001314,False,,False,,,,,29
609.046,1.6895905349999794,0.95361328125,0.291748046875,0.010498046875,-7.267175572519084,-0.030534351145038167,-0.5801526717557252,23181,-2,1,2.780804035452868,-12017.959603970556,0.001314,False,,False,,,,,29
609.046,1.6915894559999742,0.95361328125,0.291748046875,0.010498046875,-7.267175572519084,-0.030534351145038167,-0.5801526717557252,23181,-2,1,2.780804035452868,-12017.959603970556,0.001314,False,,False,,,,,29
609.046,1.6935906919999297,0.95361328125,0.291748046875,0.010498046875,-7.267175572519084,-0.030534351145038167,-0.5801526717557252,23181,-2,1,2.780804035452868,-12017.959603970556,0.001314,False,,False,,,,,29
609.051,1.6955920019998985,0.95556640625,0.29150390625,0.013427734375,-7.175572519083969,0.15267175572519084,-0.8244274809160305,23181,0,-1,2.780804035452868,-12011.968614852272,-0.001314,False,,False,,,,,29
609.051,1.6975934229999439,0.95556640625,0.29150390625,0.013427734375,-7.175572519083969,0.15267175572519084,-0.8244274809160305,23181,0,-1,2.780804035452868,-12011.968614852272,-0.001314,False,,False,,,,,29
609.056,1.6995970289999605,0.958984375,0.2958984375,0.017578125,-7.603053435114504,-0.24427480916030533,-0.549618320610687,23181,1,5,2.780804035452868,-12007.018627560032,0.0065699999999999995,False,,False,,,,,29
609.056,1.7015969869999026,0.958984375,0.2958984375,0.017578125,-7.603053435114504,-0.24427480916030533,-0.549618320610687,23181,1,5,2.780804035452868,-12007.018627560032,0.0065699999999999995,False,,False,,,,,29
609.061,1.7035989639999798,0.94873046875,0.295166015625,0.015625,-7.66412213740458,-0.3969465648854962,-0.3969465648854962,23182,0,5,2.778332111624743,-12003.013647509544,0.0065699999999999995,False,,False,,,,,30
609.061,1.7055991069998981,0.94873046875,0.295166015625,0.015625,-7.66412213740458,-0.3969465648854962,-0.3969465648854962,23182,0,5,2.778332111624743,-12003.013647509544,0.0065699999999999995,False,,False,,,,,30
609.061,1.707600824999986,0.94873046875,0.295166015625,0.015625,-7.66412213740458,-0.3969465648854962,-0.3969465648854962,23182,0,5,2.778332111624743,-12003.013647509544,0.0065699999999999995,False,,False,,,,,30
609.066,1.7096043569999892,0.949951171875,0.29443359375,0.014404296875,-7.755725190839694,-0.15267175572519084,-0.42748091603053434,23181,0,1,2.780804035452868,-11999.857829231023,0.001314,False,,False,,,,,30
609.066,1.7116047779999235,0.949951171875,0.29443359375,0.014404296875,-7.755725190839694,-0.15267175572519084,-0.42748091603053434,23181,0,1,2.780804035452868,-11999.857829231023,0.001314,False,,False,,,,,30
609.071,1.7136059579999028,0.949462890625,0.294677734375,0.016357421875,-7.694656488549618,-0.366412213740458,-0.33587786259541985,23182,-1,4,2.778332111624743,-11997.456840577668,0.005256,False,,False,,,,,29
609.071,1.7156113049999249,0.949462890625,0.294677734375,0.016357421875,-7.694656488549618,-0.366412213740458,-0.33587786259541985,23182,-1,4,2.778332111624743,-11997.456840577668,0.005256,False,,False,,,,,29
609.071,1.7176080969999248,0.949462890625,0.294677734375,0.016357421875,-7.694656488549618,-0.366412213740458,-0.33587786259541985,23182,-1,4,2.778332111624743,-11997.456840577668,0.005256,False,,False,,,,,29
609.076,1.7196111289999862,0.945556640625,0.29541015625,0.0107421875,-7.908396946564885,-0.15267175572519084,0.366412213740458,23182,-1,0,2.778332111624743,-11995.724354405385,0.0,False,,False,,,,,29
609.076,1.721611290999931,0.945556640625,0.29541015625,0.0107421875,-7.908396946564885,-0.15267175572519084,0.366412213740458,23182,-1,0,2.778332111624743,-11995.724354405385,0.0,False,,False,,,,,29
609.081,1.723612952999929,0.9462890625,0.305908203125,0.013671875,-7.7251908396946565,-0.21374045801526717,0.916030534351145,23181,-1,1,2.780804035452868,-11994.57483379249,0.001314,False,,False,,,,,29
609.081,1.7256145220000008,0.9462890625,0.305908203125,0.013671875,-7.7251908396946565,-0.21374045801526717,0.916030534351145,23181,-1,1,2.780804035452868,-11994.57483379249,0.001314,False,,False,,,,,29
609.081,1.7276163319999114,0.9462890625,0.305908203125,0.013671875,-7.7251908396946565,-0.21374045801526717,0.916030534351145,23181,-1,1,2.780804035452868,-11994.57483379249,0.001314,False,,False,,,,,29
609.086,1.7296200309999676,0.9443359375,0.30908203125,0.014892578125,-7.755725190839694,-0.6717557251908397,1.2213740458015268,23181,0,-2,2.780804035452868,-11993.926433031118,-0.002628,False,,False,,,,,29
609.086,1.7316186739999466,0.9443359375,0.30908203125,0.014892578125,-7.755725190839694,-0.6717557251908397,1.2213740458015268,23181,0,-2,2.780804035452868,-11993.926433031118,-0.002628,False,,False,,,,,29
609.091,1.7336202249999815,0.9453125,0.310546875,0.017578125,-7.419847328244274,-0.5190839694656488,1.5572519083969465,23180,-11,-3,2.783275959280993,-11993.706953818724,-0.003942,False,,False,,,,,29
609.091,1.7356215349999502,0.9453125,0.310546875,0.017578125,-7.419847328244274,-0.5190839694656488,1.5572519083969465,23180,-11,-3,2.783275959280993,-11993.706953818724,-0.003942,False,,False,,,,,29
609.091,1.7376232709999613,0.9453125,0.310546875,0.017578125,-7.419847328244274,-0.5190839694656488,1.5572519083969465,23180,-11,-3,2.783275959280993,-11993.706953818724,-0.003942,False,,False,,,,,29
609.096,1.7396259139999302,0.945068359375,0.306640625,0.015625,-7.083969465648854,-0.12213740458015267,1.8625954198473282,23182,-1,0,2.778332111624743,-11993.853320400523,0.0,False,,False,,,,,29
609.096,1.7416253909999568,0.945068359375,0.306640625,0.015625,-7.083969465648854,-0.12213740458015267,1.8625954198473282,23182,-1,0,2.778332111624743,-11993.853320400523,0.0,False,,False,,,,,29
609.101,1.7436271819999547,0.94140625,0.302734375,0.014892578125,-6.931297709923664,-0.061068702290076333,1.9541984732824427,23180,-4,1,2.783275959280993,-11994.305636500003,0.001314,False,,False,,,,,29
609.101,1.7456274369999392,0.94140625,0.302734375,0.014892578125,-6.931297709923664,-0.061068702290076333,1.9541984732824427,23180,-4,1,2.783275959280993,-11994.305636500003,0.001314,False,,False,,,,,29
609.101,1.7476295429999027,0.94140625,0.302734375,0.014892578125,-6.931297709923664,-0.061068702290076333,1.9541984732824427,23180,-4,1,2.783275959280993,-11994.305636500003,0.001314,False,,False,,,,,29
609.106,1.7496324819999245,0.947509765625,0.296630859375,0.0166015625,-7.206106870229007,0.4580152671755725,2.0763358778625953,23183,11,7,2.775860187796618,-11995.007535342467,0.009198,False,,False,,,,,29
609.106,1.7516316629998983,0.947509765625,0.296630859375,0.0166015625,-7.206106870229007,0.4580152671755725,2.0763358778625953,23183,11,7,2.775860187796618,-11995.007535342467,0.009198,False,,False,,,,,29
609.111,1.7536574169999994,0.952392578125,0.29150390625,0.017333984375,-7.633587786259541,0.42748091603053434,2.198473282442748,23183,5,3,2.775860187796618,-11995.913583574076,0.003942,False,,False,,,,,29
609.111,1.7556563189999679,0.952392578125,0.29150390625,0.017333984375,-7.633587786259541,0.42748091603053434,2.198473282442748,23183,5,3,2.775860187796618,-11995.913583574076,0.003942,False,,False,,,,,29
609.111,1.7576583329999949,0.952392578125,0.29150390625,0.017333984375,-7.633587786259541,0.42748091603053434,2.198473282442748,23183,5,3,2.775860187796618,-11995.913583574076,0.003942,False,,False,,,,,29
609.116,1.759660753999924,0.948486328125,0.287353515625,0.01611328125,-8.091603053435113,0.42748091603053434,2.3206106870229006,23182,7,8,2.778332111624743,-11996.973835247534,0.010512,False,,False,,,,,29
609.116,1.7616613049999614,0.948486328125,0.287353515625,0.01611328125,-8.091603053435113,0.42748091603053434,2.3206106870229006,23182,7,8,2.778332111624743,-11996.973835247534,0.010512,False,,False,,,,,29
609.121,1.7636639479999303,0.947021484375,0.288818359375,0.0166015625,-8.183206106870228,0.0,2.4122137404580153,23182,9,4,2.778332111624743,-11998.140661620851,0.005256,False,,False,,,,,29
609.121,1.7656634989999702,0.947021484375,0.288818359375,0.0166015625,-8.183206106870228,0.0,2.4122137404580153,23182,9,4,2.778332111624743,-11998.140661620851,0.005256,False,,False,,,,,29
609.121,1.7676657349999232,0.947021484375,0.288818359375,0.0166015625,-8.183206106870228,0.0,2.4122137404580153,23182,9,4,2.778332111624743,-11998.140661620851,0.005256,False,,False,,,,,29
609.126,1.769668544999945,0.94384765625,0.29248046875,0.018798828125,-8.305343511450381,-0.0916030534351145,2.4732824427480917,23182,2,3,2.778332111624743,-11999.381597387517,0.003942,False,,False,,,,,29
609.126,1.7716680029999452,0.94384765625,0.29248046875,0.018798828125,-8.305343511450381,-0.0916030534351145,2.4732824427480917,23182,2,3,2.778332111624743,-11999.381597387517,0.003942,False,,False,,,,,29
609.131,1.7736719239999275,0.942626953125,0.29248046875,0.017822265625,-8.122137404580153,0.15267175572519084,2.6564885496183206,23181,3,5,2.780804035452868,-12000.666599081971,0.0065699999999999995,False,,False,,,,,29
609.131,1.7756713640000044,0.942626953125,0.29248046875,0.017822265625,-8.122137404580153,0.15267175572519084,2.6564885496183206,23181,3,5,2.780804035452868,-12000.666599081971,0.0065699999999999995,False,,False,,,,,29
609.131,1.7776732849999917,0.942626953125,0.29248046875,0.017822265625,-8.122137404580153,0.15267175572519084,2.6564885496183206,23181,3,5,2.780804035452868,-12000.666599081971,0.0065699999999999995,False,,False,,,,,29
609.136,1.7796765209999421,0.938720703125,0.291015625,0.0263671875,-7.7251908396946565,-0.6106870229007634,2.4427480916030535,23181,0,10,2.780804035452868,-12001.968085990913,0.013139999999999999,False,,False,,,,,29
609.136,1.78167573799999,0.938720703125,0.291015625,0.0263671875,-7.7251908396946565,-0.6106870229007634,2.4427480916030535,23181,0,10,2.780804035452868,-12001.968085990913,0.013139999999999999,False,,False,,,,,29
609.141,1.7836801779999405,0.934814453125,0.283447265625,0.022216796875,-7.358778625954198,-0.6717557251908397,2.1068702290076335,23182,3,6,2.778332111624743,-12003.268100742955,0.007884,False,,False,,,,,29
609.141,1.7856799879999699,0.934814453125,0.283447265625,0.022216796875,-7.358778625954198,-0.6717557251908397,2.1068702290076335,23182,3,6,2.778332111624743,-12003.268100742955,0.007884,False,,False,,,,,29
609.141,1.7876809269999967,0.934814453125,0.283447265625,0.022216796875,-7.358778625954198,-0.6717557251908397,2.1068702290076335,23182,3,6,2.778332111624743,-12003.268100742955,0.007884,False,,False,,,,,29
609.146,1.789684829999942,0.9404296875,0.2783203125,0.020263671875,-7.755725190839694,-0.549618320610687,1.648854961832061,23182,-1,0,2.778332111624743,-12004.551631082999,0.0,False,,False,,,,,29
609.146,1.7916834919999474,0.9404296875,0.2783203125,0.020263671875,-7.755725190839694,-0.549618320610687,1.648854961832061,23182,-1,0,2.778332111624743,-12004.551631082999,0.0,False,,False,,,,,29
609.1510000000001,1.7936865240000088,0.944580078125,0.273193359375,0.01708984375,-8.061068702290076,-0.4580152671755725,1.1908396946564885,23181,0,0,2.780804035452868,-12005.79918581404,0.0,False,,False,,,,,29
609.1510000000001,1.7956866490000039,0.944580078125,0.273193359375,0.01708984375,-8.061068702290076,-0.4580152671755725,1.1908396946564885,23181,0,0,2.780804035452868,-12005.79918581404,0.0,False,,False,,,,,29
609.1510000000001,1.7976885699999912,0.944580078125,0.273193359375,0.01708984375,-8.061068702290076,-0.4580152671755725,1.1908396946564885,23181,0,0,2.780804035452868,-12005.79918581404,0.0,False,,False,,,,,29
609.1560000000001,1.7996910459999071,0.95068359375,0.25732421875,0.004150390625,-8.82442748091603,-0.5190839694656488,0.3969465648854962,23181,0,6,2.780804035452868,-12006.994968432375,0.007884,False,,False,,,,,29
609.1560000000001,1.8016910789999656,0.95068359375,0.25732421875,0.004150390625,-8.82442748091603,-0.5190839694656488,0.3969465648854962,23181,0,6,2.780804035452868,-12006.994968432375,0.007884,False,,False,,,,,29
609.1610000000001,1.8037096099999417,0.963623046875,0.258056640625,0.00390625,-9.404580152671755,-1.3435114503816794,0.0916030534351145,23181,-3,4,2.780804035452868,-12008.131875917843,0.005256,False,,False,,,,,29
609.1610000000001,1.8057087349999392,0.963623046875,0.258056640625,0.00390625,-9.404580152671755,-1.3435114503816794,0.0916030534351145,23181,-3,4,2.780804035452868,-12008.131875917843,0.005256,False,,False,,,,,29
609.1610000000001,1.8077099710000084,0.963623046875,0.258056640625,0.00390625,-9.404580152671755,-1.3435114503816794,0.0916030534351145,23181,-3,4,2.780804035452868,-12008.131875917843,0.005256,False,,False,,,,,29
609.166,1.8097131329999456,0.963623046875,0.26025390625,0.00048828125,-10.473282442748092,-1.648854961832061,-0.030534351145038167,23181,-1,4,2.780804035452868,-12009.20481466022,0.005256,False,,False,,,,,29
609.166,1.811712942999975,0.963623046875,0.26025390625,0.00048828125,-10.473282442748092,-1.648854961832061,-0.030534351145038167,23181,-1,4,2.780804035452868,-12009.20481466022,0.005256,False,,False,,,,,29
609.171,1.8137166049999678,0.97265625,0.269775390625,0.000732421875,-11.114503816793892,-2.045801526717557,-0.0916030534351145,23180,-1,0,2.783275959280993,-12010.206866070816,0.0,False,,False,,,,,29
609.171,1.8157163039999205,0.97265625,0.269775390625,0.000732421875,-11.114503816793892,-2.045801526717557,-0.0916030534351145,23180,-1,0,2.783275959280993,-12010.206866070816,0.0,False,,False,,,,,29
609.171,1.8177177249999659,0.97265625,0.269775390625,0.000732421875,-11.114503816793892,-2.045801526717557,-0.0916030534351145,23180,-1,0,2.783275959280993,-12010.206866070816,0.0,False,,False,,,,,29
609.176,1.8197196459999532,0.962158203125,0.28564453125,-0.001708984375,-11.511450381679388,-3.0229007633587783,-0.2748091603053435,23180,3,0,2.783275959280993,-12011.13326495949,0.0,False,,False,,,,,29
609.176,1.82172045599998,0.962158203125,0.28564453125,-0.001708984375,-11.511450381679388,-3.0229007633587783,-0.2748091603053435,23180,3,0,2.783275959280993,-12011.13326495949,0.0,False,,False,,,,,29
609.181,1.8237236919999305,0.97021484375,0.30029296875,0.006103515625,-11.236641221374045,-3.847328244274809,-0.5190839694656488,23179,-5,0,2.785747883109118,-12011.982908458016,0.0,False,,False,,,,,29
609.181,1.8257225019999623,0.97021484375,0.30029296875,0.006103515625,-11.236641221374045,-3.847328244274809,-0.5190839694656488,23179,-5,0,2.785747883109118,-12011.982908458016,0.0,False,,False,,,,,29
609.181,1.8277241259999073,0.97021484375,0.30029296875,0.006103515625,-11.236641221374045,-3.847328244274809,-0.5190839694656488,23179,-5,0,2.785747883109118,-12011.982908458016,0.0,False,,False,,,,,29
609.186,1.829726806999929,0.9697265625,0.30419921875,0.0107421875,-11.114503816793892,-4.152671755725191,-0.6412213740458015,23181,5,0,2.780804035452868,-12012.759566207998,0.0,False,,False,,,,,29
609.186,1.8317264499999055,0.9697265625,0.30419921875,0.0107421875,-11.114503816793892,-4.152671755725191,-0.6412213740458015,23181,5,0,2.780804035452868,-12012.759566207998,0.0,False,,False,,,,,29
609.191,1.8337302420000015,0.961181640625,0.305908203125,0.010498046875,-11.267175572519083,-4.091603053435114,-0.7938931297709924,23180,0,1,2.783275959280993,-12013.467451408766,0.001314,False,,False,,,,,29
609.191,1.8357288849999804,0.961181640625,0.305908203125,0.010498046875,-11.267175572519083,-4.091603053435114,-0.7938931297709924,23180,0,1,2.783275959280993,-12013.467451408766,0.001314,False,,False,,,,,29
609.191,1.8377309539999942,0.961181640625,0.305908203125,0.010498046875,-11.267175572519083,-4.091603053435114,-0.7938931297709924,23180,0,1,2.783275959280993,-12013.467451408766,0.001314,False,,False,,,,,29
609.196,1.8397358009999607,0.968505859375,0.303466796875,0.020263671875,-11.358778625954198,-4.7328244274809155,-0.9465648854961831,23179,0,10,2.785747883109118,-12014.102135041732,0.013139999999999999,False,,False,,,,,29
609.196,1.841733592999958,0.968505859375,0.303466796875,0.020263671875,-11.358778625954198,-4.7328244274809155,-0.9465648854961831,23179,0,10,2.785747883109118,-12014.102135041732,0.013139999999999999,False,,False,,,,,29
609.201,1.843736884000009,0.9619140625,0.30615234375,0.020751953125,-11.725190839694656,-4.763358778625954,-0.4580152671755725,23179,2,6,2.785747883109118,-12014.662760169034,0.007884,False,,False,,,,,29
609.201,1.8457360639999933,0.9619140625,0.30615234375,0.020751953125,-11.725190839694656,-4.763358778625954,-0.4580152671755725,23179,2,6,2.785747883109118,-12014.662760169034,0.007884,False,,False,,,,,29
609.201,1.8477375969999912,0.9619140625,0.30615234375,0.020751953125,-11.725190839694656,-4.763358778625954,-0.4580152671755725,23179,2,6,2.785747883109118,-12014.662760169034,0.007884,False,,False,,,,,29
609.206,1.8497403879999865,0.965087890625,0.31298828125,0.028564453125,-11.603053435114504,-5.2824427480916025,-0.366412213740458,23180,0,3,2.783275959280993,-12015.158634764133,0.003942,False,,False,,,,,29
609.206,1.8517413649999526,0.965087890625,0.31298828125,0.028564453125,-11.603053435114504,-5.2824427480916025,-0.366412213740458,23180,0,3,2.783275959280993,-12015.158634764133,0.003942,False,,False,,,,,29
609.211,1.8537743959999489,0.96435546875,0.32080078125,0.030517578125,-11.48091603053435,-5.435114503816794,-0.4580152671755725,23179,0,4,2.785747883109118,-12015.59490830651,0.005256,False,,False,,,,,29
609.211,1.8557737059999226,0.96435546875,0.32080078125,0.030517578125,-11.48091603053435,-5.435114503816794,-0.4580152671755725,23179,0,4,2.785747883109118,-12015.59490830651,0.005256,False,,False,,,,,29
609.211,1.8577745899999627,0.96435546875,0.32080078125,0.030517578125,-11.48091603053435,-5.435114503816794,-0.4580152671755725,23179,0,4,2.785747883109118,-12015.59490830651,0.005256,False,,False,,,,,29
609.216,1.8597780849999026,0.961669921875,0.3369140625,0.036865234375,-11.389312977099236,-5.648854961832061,0.183206106870229,23180,2,2,2.783275959280993,-12015.97317426169,0.002628,False,,False,,,,,29
609.216,1.86177726599999,0.961669921875,0.3369140625,0.036865234375,-11.389312977099236,-5.648854961832061,0.183206106870229,23180,2,2,2.783275959280993,-12015.97317426169,0.002628,False,,False,,,,,29
609.221,1.8637816869999142,0.949951171875,0.337890625,0.03515625,-10.961832061068701,-5.648854961832061,0.12213740458015267,23179,2,8,2.785747883109118,-12016.297397493963,0.010512,False,,False,,,,,30
609.221,1.8657794229999354,0.949951171875,0.337890625,0.03515625,-10.961832061068701,-5.648854961832061,0.12213740458015267,23179,2,8,2.785747883109118,-12016.297397493963,0.010512,False,,False,,,,,30
609.221,1.8677808249999543,0.949951171875,0.337890625,0.03515625,-10.961832061068701,-5.648854961832061,0.12213740458015267,23179,2,8,2.785747883109118,-12016.297397493963,0.010512,False,,False,,,,,30
609.226,1.8697848580000027,0.951904296875,0.341796875,0.035888671875,-10.50381679389313,-5.435114503816794,-0.030534351145038167,23179,2,3,2.785747883109118,-12016.569889712922,0.003942,False,,False,,,,,30
609.226,1.871783685999958,0.951904296875,0.341796875,0.035888671875,-10.50381679389313,-5.435114503816794,-0.030534351145038167,23179,2,3,2.785747883109118,-12016.569889712922,0.003942,False,,False,,,,,30
609.231,1.8737865150000061,0.951416015625,0.34716796875,0.038818359375,-10.381679389312977,-5.038167938931298,0.2748091603053435,23179,0,2,2.785747883109118,-12016.795126156607,0.002628,False,,False,,,,,29
609.231,1.8757874729999457,0.951416015625,0.34716796875,0.038818359375,-10.381679389312977,-5.038167938931298,0.2748091603053435,23179,0,2,2.785747883109118,-12016.795126156607,0.002628,False,,False,,,,,29
609.231,1.8777892639999436,0.951416015625,0.34716796875,0.038818359375,-10.381679389312977,-5.038167938931298,0.2748091603053435,23179,0,2,2.785747883109118,-12016.795126156607,0.002628,False,,False,,,,,29
609.236,1.8797910929999944,0.950439453125,0.34912109375,0.037109375,-9.374045801526718,-4.7328244274809155,-0.030534351145038167,23180,0,1,2.783275959280993,-12016.981119001992,0.001314,False,,False,,,,,29
609.236,1.8817929769999182,0.950439453125,0.34912109375,0.037109375,-9.374045801526718,-4.7328244274809155,-0.030534351145038167,23180,0,1,2.783275959280993,-12016.981119001992,0.001314,False,,False,,,,,29
609.241,1.8837971759999164,0.93896484375,0.342529296875,0.036865234375,-9.190839694656487,-4.183206106870228,0.42748091603053434,23179,3,1,2.785747883109118,-12017.131563399547,0.001314,False,,False,,,,,29
609.241,1.8857960969999112,0.93896484375,0.342529296875,0.036865234375,-9.190839694656487,-4.183206106870228,0.42748091603053434,23179,3,1,2.785747883109118,-12017.131563399547,0.001314,False,,False,,,,,29
609.241,1.8877970730000015,0.93896484375,0.342529296875,0.036865234375,-9.190839694656487,-4.183206106870228,0.42748091603053434,23179,3,1,2.785747883109118,-12017.131563399547,0.001314,False,,False,,,,,29
609.246,1.889801067999997,0.94482421875,0.355712890625,0.0439453125,-8.427480916030534,-4.488549618320611,0.5190839694656488,23179,-1,7,2.785747883109118,-12017.246486833743,0.009198,False,,False,,,,,29
609.246,1.8917996559999892,0.94482421875,0.355712890625,0.0439453125,-8.427480916030534,-4.488549618320611,0.5190839694656488,23179,-1,7,2.785747883109118,-12017.246486833743,0.009198,False,,False,,,,,29
609.251,1.8938032439999688,0.934326171875,0.35302734375,0.044189453125,-7.66412213740458,-4.488549618320611,0.6106870229007634,23179,2,1,2.785747883109118,-12017.33000790487,0.001314,False,,False,,,,,29
609.251,1.895801849999998,0.934326171875,0.35302734375,0.044189453125,-7.66412213740458,-4.488549618320611,0.6106870229007634,23179,2,1,2.785747883109118,-12017.33000790487,0.001314,False,,False,,,,,29
609.251,1.897803457000009,0.934326171875,0.35302734375,0.044189453125,-7.66412213740458,-4.488549618320611,0.6106870229007634,23179,2,1,2.785747883109118,-12017.33000790487,0.001314,False,,False,,,,,29
609.256,1.8998055810000096,0.934326171875,0.357666015625,0.045654296875,-6.65648854961832,-4.122137404580153,0.732824427480916,23179,5,1,2.785747883109118,-12017.38782005112,0.001314,False,,False,,,,,29
609.256,1.9018058169999676,0.934326171875,0.357666015625,0.045654296875,-6.65648854961832,-4.122137404580153,0.732824427480916,23179,5,1,2.785747883109118,-12017.38782005112,0.001314,False,,False,,,,,29
609.261,1.9038368669999954,0.929931640625,0.359130859375,0.048583984375,-5.2824427480916025,-4.366412213740458,0.6717557251908397,23179,-2,6,2.785747883109118,-12017.423271648466,0.007884,False,,False,,,,,29
609.261,1.9058149369999455,0.929931640625,0.359130859375,0.048583984375,-5.2824427480916025,-4.366412213740458,0.6717557251908397,23179,-2,6,2.785747883109118,-12017.423271648466,0.007884,False,,False,,,,,29
609.261,1.907817098999999,0.929931640625,0.359130859375,0.048583984375,-5.2824427480916025,-4.366412213740458,0.6717557251908397,23179,-2,6,2.785747883109118,-12017.423271648466,0.007884,False,,False,,,,,29
609.266,1.9098188159999836,0.932373046875,0.360595703125,0.04638671875,-4.641221374045801,-3.9083969465648853,0.5801526717557252,23178,-1,1,2.788219806937243,-12017.437699322807,0.001314,False,,False,,,,,29
609.266,1.9118194039999707,0.932373046875,0.360595703125,0.04638671875,-4.641221374045801,-3.9083969465648853,0.5801526717557252,23178,-1,1,2.788219806937243,-12017.437699322807,0.001314,False,,False,,,,,29
609.271,1.9138232699999662,0.925537109375,0.356201171875,0.03759765625,-4.519083969465648,-3.5114503816793894,0.549618320610687,23178,-2,8,2.788219806937243,-12017.43252664064,0.010512,False,,False,,,,,30
609.271,1.9158223389999876,0.925537109375,0.356201171875,0.03759765625,-4.519083969465648,-3.5114503816793894,0.549618320610687,23178,-2,8,2.788219806937243,-12017.43252664064,0.010512,False,,False,,,,,30
609.271,1.9178240559999722,0.925537109375,0.356201171875,0.03759765625,-4.519083969465648,-3.5114503816793894,0.549618320610687,23178,-2,8,2.788219806937243,-12017.43252664064,0.010512,False,,False,,,,,30
609.2760000000001,1.919826847999957,0.9365234375,0.3544921875,0.04150390625,-3.0229007633587783,-3.2671755725190836,0.0916030534351145,23174,-9,3,2.798107502249743,-12017.405648321384,0.003942,False,,False,,,,,30
609.2760000000001,1.9218259729999545,0.9365234375,0.3544921875,0.04150390625,-3.0229007633587783,-3.2671755725190836,0.0916030534351145,23174,-9,3,2.798107502249743,-12017.405648321384,0.003942,False,,False,,,,,30
609.2810000000001,1.9238306899999316,0.924560546875,0.347412109375,0.03466796875,-2.931297709923664,-2.8702290076335877,0.12213740458015267,23171,-10,-4,2.805523273734118,-12017.350244793884,-0.005256,False,,False,,,,,29
609.2810000000001,1.9258287959999052,0.924560546875,0.347412109375,0.03466796875,-2.931297709923664,-2.8702290076335877,0.12213740458015267,23171,-10,-4,2.805523273734118,-12017.350244793884,-0.005256,False,,False,,,,,29
609.2810000000001,1.927830753999956,0.924560546875,0.347412109375,0.03466796875,-2.931297709923664,-2.8702290076335877,0.12213740458015267,23171,-10,-4,2.805523273734118,-12017.350244793884,-0.005256,False,,False,,,,,29
609.2860000000001,1.9298323049999908,0.93505859375,0.3515625,0.04345703125,-3.114503816793893,-3.32824427480916,-0.42748091603053434,23166,-28,0,2.817882892874743,-12017.264601085493,0.0,False,,False,,,,,29
609.2860000000001,1.931833003999941,0.93505859375,0.3515625,0.04345703125,-3.114503816793893,-3.32824427480916,-0.42748091603053434,23166,-28,0,2.817882892874743,-12017.264601085493,0.0,False,,False,,,,,29
609.291,1.9338374799999656,0.92822265625,0.353759765625,0.04638671875,-3.7862595419847325,-3.2671755725190836,-1.465648854961832,23155,-54,0,2.845074054984118,-12017.138767012959,0.0,False,,False,,,,,29
609.291,1.9358365679998997,0.92822265625,0.353759765625,0.04638671875,-3.7862595419847325,-3.2671755725190836,-1.465648854961832,23155,-54,0,2.845074054984118,-12017.138767012959,0.0,False,,False,,,,,29
609.291,1.9378379149999319,0.92822265625,0.353759765625,0.04638671875,-3.7862595419847325,-3.2671755725190836,-1.465648854961832,23155,-54,0,2.845074054984118,-12017.138767012959,0.0,False,,False,,,,,29
609.296,1.939839261999964,0.905029296875,0.377685546875,0.049072265625,-9.374045801526718,-4.6106870229007635,-4.305343511450381,23131,-104,11,2.904400226859118,-12016.932765616233,0.014454,False,,False,,,,,29
609.296,1.9418403689999195,0.905029296875,0.377685546875,0.049072265625,-9.374045801526718,-4.6106870229007635,-4.305343511450381,23131,-104,11,2.904400226859118,-12016.932765616233,0.014454,False,,False,,,,,29
609.301,1.9438436599999704,0.906494140625,0.369873046875,0.045166015625,-7.816793893129771,-4.33587786259542,-4.427480916030534,23102,-134,3,2.976086017874743,-12016.596385238294,0.003942,False,,False,,,,,29
609.301,1.9458438030000025,0.906494140625,0.369873046875,0.045166015625,-7.816793893129771,-4.33587786259542,-4.427480916030534,23102,-134,3,2.976086017874743,-12016.596385238294,0.003942,False,,False,,,,,29
609.301,1.9478459099999554,0.906494140625,0.369873046875,0.045166015625,-7.816793893129771,-4.33587786259542,-4.427480916030534,23102,-134,3,2.976086017874743,-12016.596385238294,0.003942,False,,False,,,,,29
609.306,1.949850033999951,0.901611328125,0.3974609375,0.03759765625,-6.65648854961832,-4.7328244274809155,-6.1679389312977095,23069,-147,1,3.057659504202868,-12016.10738340745,0.001314,False,,False,,,,,29
609.306,1.9518484929999431,0.901611328125,0.3974609375,0.03759765625,-6.65648854961832,-4.7328244274809155,-6.1679389312977095,23069,-147,1,3.057659504202868,-12016.10738340745,0.001314,False,,False,,,,,29
609.311,1.9538525059999756,0.8994140625,0.376708984375,0.0341796875,-7.0534351145038165,-4.0,-5.770992366412213,23033,-154,3,3.146648762015368,-12015.469045665543,0.003942,False,,False,,,,,29
609.311,1.9558517789999996,0.8994140625,0.376708984375,0.0341796875,-7.0534351145038165,-4.0,-5.770992366412213,23033,-154,3,3.146648762015368,-12015.469045665543,0.003942,False,,False,,,,,29
609.311,1.9578538299999764,0.8994140625,0.376708984375,0.0341796875,-7.0534351145038165,-4.0,-5.770992366412213,23033,-154,3,3.146648762015368,-12015.469045665543,0.003942,False,,False,,,,,29
609.316,1.9598585469999534,0.895263671875,0.37744140625,0.031982421875,-7.541984732824427,-4.916030534351145,-7.694656488549618,22993,-183,3,3.245525715140368,-12014.689867004681,0.003942,False,,False,,,,,29
609.316,1.9618554679999534,0.895263671875,0.37744140625,0.031982421875,-7.541984732824427,-4.916030534351145,-7.694656488549618,22993,-183,3,3.245525715140368,-12014.689867004681,0.003942,False,,False,,,,,29
609.321,1.963858648999917,0.9248046875,0.387451171875,0.036865234375,-7.022900763358779,-4.977099236641221,-7.908396946564885,22948,-200,7,3.356762287405993,-12013.775418591867,0.009198,False,,False,,,,,29
609.321,1.9658581989999675,0.9248046875,0.387451171875,0.036865234375,-7.022900763358779,-4.977099236641221,-7.908396946564885,22948,-200,7,3.356762287405993,-12013.775418591867,0.009198,False,,False,,,,,29
609.321,1.9678601580000077,0.9248046875,0.387451171875,0.036865234375,-7.022900763358779,-4.977099236641221,-7.908396946564885,22948,-200,7,3.356762287405993,-12013.775418591867,0.009198,False,,False,,,,,29
609.326,1.9698613189999605,0.90771484375,0.373046875,0.031494140625,-6.687022900763359,-5.526717557251908,-7.32824427480916,22902,-199,1,3.470470783499743,-12012.734114625899,0.001314,False,,False,,,,,29
609.326,1.9718622959999266,0.90771484375,0.373046875,0.031494140625,-6.687022900763359,-5.526717557251908,-7.32824427480916,22902,-199,1,3.470470783499743,-12012.734114625899,0.001314,False,,False,,,,,29
609.331,1.9738671430000068,0.952392578125,0.394775390625,0.04443359375,-2.8702290076335877,-5.190839694656488,-7.66412213740458,22862,-179,4,3.569347736624743,-12011.599904099601,0.005256,False,,False,,,,,29
609.331,1.9758645639999486,0.952392578125,0.394775390625,0.04443359375,-2.8702290076335877,-5.190839694656488,-7.66412213740458,22862,-179,4,3.569347736624743,-12011.599904099601,0.005256,False,,False,,,,,29
609.331,1.97786607799992,0.952392578125,0.394775390625,0.04443359375,-2.8702290076335877,-5.190839694656488,-7.66412213740458,22862,-179,4,3.569347736624743,-12011.599904099601,0.005256,False,,False,,,,,29
609.336,1.9798671659999627,0.9697265625,0.37939453125,0.04833984375,0.21374045801526717,-4.366412213740458,-6.076335877862595,22825,-158,0,3.660808918265368,-12010.42941196124,0.0,False,,False,,,,,29
609.336,1.9818685309999182,0.9697265625,0.37939453125,0.04833984375,0.21374045801526717,-4.366412213740458,-6.076335877862595,22825,-158,0,3.660808918265368,-12010.42941196124,0.0,False,,False,,,,,29
609.341,1.9838725629999772,0.93505859375,0.3408203125,0.042724609375,-0.9465648854961831,-3.8167938931297707,-5.526717557251908,22793,-148,-8,3.739910480765368,-12009.275940692785,-0.010512,False,,False,,,,,29
609.341,1.9858714099999588,0.93505859375,0.3408203125,0.042724609375,-0.9465648854961831,-3.8167938931297707,-5.526717557251908,22793,-148,-8,3.739910480765368,-12009.275940692785,-0.010512,False,,False,,,,,29
609.341,1.9878725539999778,0.93505859375,0.3408203125,0.042724609375,-0.9465648854961831,-3.8167938931297707,-5.526717557251908,22793,-148,-8,3.739910480765368,-12009.275940692785,-0.010512,False,,False,,,,,29
609.346,1.9898742159999756,0.990966796875,0.32373046875,0.05810546875,2.5038167938931295,-3.145038167938931,-3.32824427480916,22770,-94,-5,3.796764728812243,-12008.19282009826,-0.0065699999999999995,False,,False,,,,,29
609.346,1.9918746920000103,0.990966796875,0.32373046875,0.05810546875,2.5038167938931295,-3.145038167938931,-3.32824427480916,22770,-94,-5,3.796764728812243,-12008.19282009826,-0.0065699999999999995,False,,False,,,,,29
609.351,1.9938788349999186,0.9658203125,0.33203125,0.0478515625,5.099236641221374,-2.595419847328244,-2.4732824427480917,22756,-60,-2,3.831371662405993,-12007.241582801787,-0.002628,False,,False,,,,,29
609.351,1.9958776449999505,0.9658203125,0.33203125,0.0478515625,5.099236641221374,-2.595419847328244,-2.4732824427480917,22756,-60,-2,3.831371662405993,-12007.241582801787,-0.002628,False,,False,,,,,29
609.351,1.9978796959999272,0.9658203125,0.33203125,0.0478515625,5.099236641221374,-2.595419847328244,-2.4732824427480917,22756,-60,-2,3.831371662405993,-12007.241582801787,-0.002628,False,,False,,,,,29
609.356,1.9998841729999413,0.98583984375,0.31201171875,0.065185546875,6.625954198473282,-0.7938931297709924,-0.3053435114503817,22749,-21,-4,3.848675129202868,-12006.47541323836,-0.005256,False,,False,,,,,29
609.356,2.001882335000005,0.98583984375,0.31201171875,0.065185546875,6.625954198473282,-0.7938931297709924,-0.3053435114503817,22749,-21,-4,3.848675129202868,-12006.47541323836,-0.005256,False,,False,,,,,29
609.361,2.003889218999916,0.979736328125,0.30810546875,0.065185546875,6.778625954198473,-0.030534351145038167,0.33587786259541985,22748,-3,-2,3.851147053030993,-12005.9272028947,-0.002628,False,,False,,,,,30
609.361,2.005886954999937,0.979736328125,0.30810546875,0.065185546875,6.778625954198473,-0.030534351145038167,0.33587786259541985,22748,-3,-2,3.851147053030993,-12005.9272028947,-0.002628,False,,False,,,,,30
609.361,2.0078881899999033,0.979736328125,0.30810546875,0.065185546875,6.778625954198473,-0.030534351145038167,0.33587786259541985,22748,-3,-2,3.851147053030993,-12005.9272028947,-0.002628,False,,False,,,,,30
609.366,2.009889444999999,0.969970703125,0.324951171875,0.06103515625,5.648854961832061,-0.12213740458015267,0.21374045801526717,22750,3,-6,3.846203205374743,-12005.608796875293,-0.007884,False,,False,,,,,30
609.366,2.011890180999899,0.969970703125,0.324951171875,0.06103515625,5.648854961832061,-0.12213740458015267,0.21374045801526717,22750,3,-6,3.846203205374743,-12005.608796875293,-0.007884,False,,False,,,,,30
609.371,2.0138941569999815,0.9716796875,0.34228515625,0.062255859375,5.2824427480916025,0.2748091603053435,0.6106870229007634,22748,1,-8,3.851147053030993,-12005.501715513645,-0.010512,False,,False,,,,,30
609.371,2.0158979119999003,0.9716796875,0.34228515625,0.062255859375,5.2824427480916025,0.2748091603053435,0.6106870229007634,22748,1,-8,3.851147053030993,-12005.501715513645,-0.010512,False,,False,,,,,30
609.371,2.017894999999953,0.9716796875,0.34228515625,0.062255859375,5.2824427480916025,0.2748091603053435,0.6106870229007634,22748,1,-8,3.851147053030993,-12005.501715513645,-0.010512,False,,False,,,,,30
609.376,2.0198972729999696,0.947509765625,0.369140625,0.05859375,7.206106870229007,-0.3969465648854962,0.366412213740458,22747,-3,-5,3.853618976859118,-12005.565940519613,-0.0065699999999999995,False,,False,,,,,30
609.376,2.0218981939999594,0.947509765625,0.369140625,0.05859375,7.206106870229007,-0.3969465648854962,0.366412213740458,22747,-3,-5,3.853618976859118,-12005.565940519613,-0.0065699999999999995,False,,False,,,,,30
609.381,2.023900540999989,0.933349609375,0.3681640625,0.052001953125,8.091603053435113,0.33587786259541985,0.33587786259541985,22749,1,-4,3.848675129202868,-12005.774440167394,-0.005256,False,,False,,,,,30
609.381,2.0259005359999946,0.933349609375,0.3681640625,0.052001953125,8.091603053435113,0.33587786259541985,0.33587786259541985,22749,1,-4,3.848675129202868,-12005.774440167394,-0.005256,False,,False,,,,,30
609.381,2.0279018459999634,0.933349609375,0.3681640625,0.052001953125,8.091603053435113,0.33587786259541985,0.33587786259541985,22749,1,-4,3.848675129202868,-12005.774440167394,-0.005256,False,,False,,,,,30
609.386,2.029903210999919,0.933349609375,0.365478515625,0.0537109375,9.129770992366412,0.6717557251908397,0.21374045801526717,22748,2,-3,3.851147053030993,-12006.107865437427,-0.003942,False,,False,,,,,30
609.386,2.0319046879999405,0.933349609375,0.365478515625,0.0537109375,9.129770992366412,0.6717557251908397,0.21374045801526717,22748,2,-3,3.851147053030993,-12006.107865437427,-0.003942,False,,False,,,,,30
609.391,2.0339088869999387,0.926025390625,0.358642578125,0.052734375,9.709923664122137,1.1908396946564885,0.6106870229007634,22748,0,-14,3.851147053030993,-12006.537464897303,-0.018396,False,,False,,,,,30
609.391,2.035907270999928,0.926025390625,0.358642578125,0.052734375,9.709923664122137,1.1908396946564885,0.6106870229007634,22748,0,-14,3.851147053030993,-12006.537464897303,-0.018396,False,,False,,,,,30
609.391,2.0379097659999843,0.926025390625,0.358642578125,0.052734375,9.709923664122137,1.1908396946564885,0.6106870229007634,22748,0,-14,3.851147053030993,-12006.537464897303,-0.018396,False,,False,,,,,30
609.396,2.0399110209999662,0.923583984375,0.349365234375,0.0537109375,10.595419847328245,1.0076335877862594,1.0687022900763359,22749,3,0,3.848675129202868,-12007.041356134547,0.0,False,,False,,,,,30
609.396,2.04191188599998,0.923583984375,0.349365234375,0.0537109375,10.595419847328245,1.0076335877862594,1.0687022900763359,22749,3,0,3.848675129202868,-12007.041356134547,0.0,False,,False,,,,,30
609.4010000000001,2.043915176999917,0.920654296875,0.348388671875,0.044921875,10.778625954198473,1.1908396946564885,1.5572519083969465,22749,-2,6,3.848675129202868,-12007.603724357668,0.007884,False,,False,,,,,29
609.4010000000001,2.0459143580000045,0.920654296875,0.348388671875,0.044921875,10.778625954198473,1.1908396946564885,1.5572519083969465,22749,-2,6,3.848675129202868,-12007.603724357668,0.007884,False,,False,,,,,29
609.4010000000001,2.0479155570000103,0.920654296875,0.348388671875,0.044921875,10.778625954198473,1.1908396946564885,1.5572519083969465,22749,-2,6,3.848675129202868,-12007.603724357668,0.007884,False,,False,,,,,29
609.4060000000001,2.0499175889999606,0.927734375,0.3466796875,0.0478515625,11.267175572519083,1.0076335877862594,1.984732824427481,22748,0,0,3.851147053030993,-12008.203320556671,0.0,False,,False,,,,,29
609.4060000000001,2.0519184730000006,0.927734375,0.3466796875,0.0478515625,11.267175572519083,1.0076335877862594,1.984732824427481,22748,0,0,3.851147053030993,-12008.203320556671,0.0,False,,False,,,,,29
609.4110000000001,2.0539230050000015,0.92529296875,0.347412109375,0.041748046875,11.755725190839694,1.5267175572519083,2.16793893129771,22749,3,-10,3.848675129202868,-12008.823606644937,-0.013139999999999999,False,,False,,,,,29
609.4110000000001,2.0559215189999804,0.92529296875,0.347412109375,0.041748046875,11.755725190839694,1.5267175572519083,2.16793893129771,22749,3,-10,3.848675129202868,-12008.823606644937,-0.013139999999999999,False,,False,,,,,29
609.4110000000001,2.0579236620000074,0.92529296875,0.347412109375,0.041748046875,11.755725190839694,1.5267175572519083,2.16793893129771,22749,3,-10,3.848675129202868,-12008.823606644937,-0.013139999999999999,False,,False,,,,,29
609.416,2.059924305999971,0.931396484375,0.35986328125,0.046142578125,12.763358778625953,1.282442748091603,3.633587786259542,22748,-1,-9,3.851147053030993,-12009.454018519376,-0.011826,False,,False,,,,,29
609.416,2.061925411999937,0.931396484375,0.35986328125,0.046142578125,12.763358778625953,1.282442748091603,3.633587786259542,22748,-1,-9,3.851147053030993,-12009.454018519376,-0.011826,False,,False,,,,,29
609.421,2.0639286109999375,0.9306640625,0.363525390625,0.053955078125,13.099236641221374,1.0687022900763359,4.122137404580153,22748,5,-5,3.851147053030993,-12010.081984407909,-0.0065699999999999995,False,,False,,,,,29
609.421,2.0659279389999483,0.9306640625,0.363525390625,0.053955078125,13.099236641221374,1.0687022900763359,4.122137404580153,22748,5,-5,3.851147053030993,-12010.081984407909,-0.0065699999999999995,False,,False,,,,,29
609.421,2.0679326009999386,0.9306640625,0.363525390625,0.053955078125,13.099236641221374,1.0687022900763359,4.122137404580153,22748,5,-5,3.851147053030993,-12010.081984407909,-0.0065699999999999995,False,,False,,,,,29
609.426,2.0699301519999835,0.931640625,0.370361328125,0.058349609375,13.801526717557252,0.8549618320610687,4.702290076335878,22747,-2,3,3.853618976859118,-12010.69701488795,0.003942,False,,False,,,,,29
609.426,2.0719311469999866,0.931640625,0.370361328125,0.058349609375,13.801526717557252,0.8549618320610687,4.702290076335878,22747,-2,3,3.853618976859118,-12010.69701488795,0.003942,False,,False,,,,,29
609.431,2.0739354379999213,0.930908203125,0.36865234375,0.058837890625,14.839694656488549,1.4045801526717556,4.702290076335878,22747,-1,-6,3.853618976859118,-12011.29230630327,-0.007884,False,,False,,,,,29
609.431,2.0759345449999955,0.930908203125,0.36865234375,0.058837890625,14.839694656488549,1.4045801526717556,4.702290076335878,22747,-1,-6,3.853618976859118,-12011.29230630327,-0.007884,False,,False,,,,,29
609.431,2.0779363179999564,0.930908203125,0.36865234375,0.058837890625,14.839694656488549,1.4045801526717556,4.702290076335878,22747,-1,-6,3.853618976859118,-12011.29230630327,-0.007884,False,,False,,,,,29
609.436,2.079937682999912,0.935791015625,0.362060546875,0.0625,16.030534351145036,2.045801526717557,5.435114503816794,22747,0,-4,3.853618976859118,-12011.864239216302,-0.005256,False,,False,,,,,29
609.436,2.0819388259999414,0.935791015625,0.362060546875,0.0625,16.030534351145036,2.045801526717557,5.435114503816794,22747,0,-4,3.853618976859118,-12011.864239216302,-0.005256,False,,False,,,,,29
609.441,2.0839425249999977,0.937744140625,0.35546875,0.065673828125,16.183206106870227,2.16793893129771,5.83206106870229,22746,0,-4,3.856090900687243,-12012.408331384378,-0.005256,False,,False,,,,,29
609.441,2.085941649999995,0.937744140625,0.35546875,0.065673828125,16.183206106870227,2.16793893129771,5.83206106870229,22746,0,-4,3.856090900687243,-12012.408331384378,-0.005256,False,,False,,,,,29
609.441,2.0879435159999957,0.937744140625,0.35546875,0.065673828125,16.183206106870227,2.16793893129771,5.83206106870229,22746,0,-4,3.856090900687243,-12012.408331384378,-0.005256,False,,False,,,,,29
609.446,2.0899454179999566,0.93896484375,0.347900390625,0.0634765625,16.213740458015266,2.259541984732824,6.1679389312977095,22746,9,-2,3.856090900687243,-12012.919443173265,-0.002628,False,,False,,,,,29
609.446,2.0919464129999596,0.93896484375,0.347900390625,0.0634765625,16.213740458015266,2.259541984732824,6.1679389312977095,22746,9,-2,3.856090900687243,-12012.919443173265,-0.002628,False,,False,,,,,29
609.451,2.0939493159999074,0.93896484375,0.345703125,0.066650390625,16.244274809160306,2.1374045801526718,6.687022900763359,22745,-1,-3,3.858562824515368,-12013.395540057372,-0.003942,False,,False,,,,,29
609.451,2.095949310999913,0.93896484375,0.345703125,0.066650390625,16.244274809160306,2.1374045801526718,6.687022900763359,22745,-1,-3,3.858562824515368,-12013.395540057372,-0.003942,False,,False,,,,,29
609.451,2.0979507139999214,0.93896484375,0.345703125,0.066650390625,16.244274809160306,2.1374045801526718,6.687022900763359,22745,-1,-3,3.858562824515368,-12013.395540057372,-0.003942,False,,False,,,,,29
609.456,2.0999517269999615,0.936279296875,0.348876953125,0.067626953125,17.251908396946565,2.2900763358778624,7.267175572519084,22744,-5,-1,3.861034748343493,-12013.83363551637,-0.001314,False,,False,,,,,29
609.456,2.1019534079999858,0.936279296875,0.348876953125,0.067626953125,17.251908396946565,2.2900763358778624,7.267175572519084,22744,-5,-1,3.861034748343493,-12013.83363551637,-0.001314,False,,False,,,,,29
609.461,2.1039573099999416,0.93408203125,0.350830078125,0.068115234375,17.34351145038168,2.4122137404580153,7.480916030534351,22744,0,-4,3.861034748343493,-12014.233570310644,-0.005256,False,,False,,,,,29
609.461,2.105956878999905,0.93408203125,0.350830078125,0.068115234375,17.34351145038168,2.4122137404580153,7.480916030534351,22744,0,-4,3.861034748343493,-12014.233570310644,-0.005256,False,,False,,,,,29
609.461,2.107960614999911,0.93408203125,0.350830078125,0.068115234375,17.34351145038168,2.4122137404580153,7.480916030534351,22744,0,-4,3.861034748343493,-12014.233570310644,-0.005256,False,,False,,,,,29
609.466,2.109959017999927,0.934814453125,0.350830078125,0.069091796875,17.923664122137403,2.717557251908397,7.633587786259541,22746,5,-3,3.856090900687243,-12014.602925967474,-0.003942,False,,False,,,,,29
609.466,2.1119661059999544,0.934814453125,0.350830078125,0.069091796875,17.923664122137403,2.717557251908397,7.633587786259541,22746,5,-3,3.856090900687243,-12014.602925967474,-0.003942,False,,False,,,,,29
609.471,2.1139630269999543,0.92822265625,0.350830078125,0.0693359375,18.198473282442748,2.5343511450381677,7.633587786259541,22745,-1,-6,3.858562824515368,-12014.94491158564,-0.007884,False,,False,,,,,29
609.471,2.1159622999999783,0.92822265625,0.350830078125,0.0693359375,18.198473282442748,2.5343511450381677,7.633587786259541,22745,-1,-6,3.858562824515368,-12014.94491158564,-0.007884,False,,False,,,,,29
609.471,2.117963627999984,0.92822265625,0.350830078125,0.0693359375,18.198473282442748,2.5343511450381677,7.633587786259541,22745,-1,-6,3.858562824515368,-12014.94491158564,-0.007884,False,,False,,,,,29
609.476,2.1199656049999476,0.92333984375,0.347412109375,0.0712890625,18.717557251908396,2.931297709923664,7.938931297709924,22744,-3,0,3.861034748343493,-12015.251867241004,0.0,False,,False,,,,,29
609.476,2.121966747999977,0.92333984375,0.347412109375,0.0712890625,18.717557251908396,2.931297709923664,7.938931297709924,22744,-3,0,3.861034748343493,-12015.251867241004,0.0,False,,False,,,,,29
609.481,2.123970983999925,0.919921875,0.35009765625,0.06884765625,19.14503816793893,3.145038167938931,7.969465648854961,22744,-3,0,3.861034748343493,-12015.52146866344,0.0,False,,False,,,,,29
609.481,2.1259700529999463,0.919921875,0.35009765625,0.06884765625,19.14503816793893,3.145038167938931,7.969465648854961,22744,-3,0,3.861034748343493,-12015.52146866344,0.0,False,,False,,,,,29
609.481,2.127971585999944,0.919921875,0.35009765625,0.06884765625,19.14503816793893,3.145038167938931,7.969465648854961,22744,-3,0,3.861034748343493,-12015.52146866344,0.0,False,,False,,,,,29
609.486,2.12997411799995,0.91357421875,0.35009765625,0.0693359375,19.572519083969464,3.480916030534351,8.030534351145038,22743,-3,0,3.863506672171618,-12015.75768266969,0.0,False,,False,,,,,29
609.486,2.131974667999998,0.91357421875,0.35009765625,0.0693359375,19.572519083969464,3.480916030534351,8.030534351145038,22743,-3,0,3.863506672171618,-12015.75768266969,0.0,False,,False,,,,,29
609.491,2.133977515999959,0.905517578125,0.343505859375,0.06787109375,20.0,3.969465648854962,8.0,22742,-1,2,3.865978595999743,-12015.960732871958,0.002628,False,,False,,,,,29
609.491,2.1359761779999644,0.905517578125,0.343505859375,0.06787109375,20.0,3.969465648854962,8.0,22742,-1,2,3.865978595999743,-12015.960732871958,0.002628,False,,False,,,,,29
609.491,2.137977747999912,0.905517578125,0.343505859375,0.06787109375,20.0,3.969465648854962,8.0,22742,-1,2,3.865978595999743,-12015.960732871958,0.002628,False,,False,,,,,29
609.496,2.1399788729999045,0.9091796875,0.3359375,0.056884765625,20.061068702290076,4.122137404580153,7.66412213740458,22741,-8,0,3.868450519827868,-12016.131286909222,0.0,False,,False,,,,,29
609.496,2.141980146999913,0.9091796875,0.3359375,0.056884765625,20.061068702290076,4.122137404580153,7.66412213740458,22741,-8,0,3.868450519827868,-12016.131286909222,0.0,False,,False,,,,,29
609.501,2.143985493999935,0.902587890625,0.336181640625,0.05859375,20.30534351145038,4.549618320610687,7.755725190839694,22739,-11,-3,3.873394367484118,-12016.270374479625,-0.003942,False,,False,,,,,29
609.501,2.1459839899999906,0.902587890625,0.336181640625,0.05859375,20.30534351145038,4.549618320610687,7.755725190839694,22739,-11,-3,3.873394367484118,-12016.270374479625,-0.003942,False,,False,,,,,29
609.501,2.1479842629998984,0.902587890625,0.336181640625,0.05859375,20.30534351145038,4.549618320610687,7.755725190839694,22739,-11,-3,3.873394367484118,-12016.270374479625,-0.003942,False,,False,,,,,29
609.506,2.1499865739999677,0.9013671875,0.334228515625,0.0625,21.251908396946565,5.404580152671755,7.7251908396946565,22739,-2,6,3.873394367484118,-12016.381103977812,0.007884,False,,False,,,,,29
609.506,2.151987217999931,0.9013671875,0.334228515625,0.0625,21.251908396946565,5.404580152671755,7.7251908396946565,22739,-2,6,3.873394367484118,-12016.381103977812,0.007884,False,,False,,,,,29
609.511,2.1539914169999292,0.910888671875,0.326171875,0.058837890625,21.862595419847327,5.862595419847328,7.755725190839694,22737,-7,-2,3.878338215140368,-12016.468279014534,-0.002628,False,,False,,,,,29
609.511,2.1560002279999253,0.910888671875,0.326171875,0.058837890625,21.862595419847327,5.862595419847328,7.755725190839694,22737,-7,-2,3.878338215140368,-12016.468279014534,-0.002628,False,,False,,,,,29
609.511,2.1579931679999618,0.910888671875,0.326171875,0.058837890625,21.862595419847327,5.862595419847328,7.755725190839694,22737,-7,-2,3.878338215140368,-12016.468279014534,-0.002628,False,,False,,,,,29
609.516,2.1599942929999543,0.933349609375,0.318115234375,0.046875,22.137404580152673,6.1679389312977095,7.541984732824427,22735,-5,-6,3.883282062796618,-12016.530890799102,-0.007884,False,,False,,,,,29
609.516,2.161995344999923,0.933349609375,0.318115234375,0.046875,22.137404580152673,6.1679389312977095,7.541984732824427,22735,-5,-6,3.883282062796618,-12016.530890799102,-0.007884,False,,False,,,,,29
609.521,2.163997636999966,0.953857421875,0.317626953125,0.045654296875,21.954198473282442,6.076335877862595,7.66412213740458,22731,-15,-1,3.893169758109118,-12016.564869623231,-0.001314,False,,False,,,,,29
609.521,2.165997817999937,0.953857421875,0.317626953125,0.045654296875,21.954198473282442,6.076335877862595,7.66412213740458,22731,-15,-1,3.893169758109118,-12016.564869623231,-0.001314,False,,False,,,,,29
609.521,2.167999090999956,0.953857421875,0.317626953125,0.045654296875,21.954198473282442,6.076335877862595,7.66412213740458,22731,-15,-1,3.893169758109118,-12016.564869623231,-0.001314,False,,False,,,,,29
609.5260000000001,2.1699999019999723,0.9677734375,0.324462890625,0.045654296875,22.076335877862594,6.290076335877862,7.450381679389313,22728,-14,0,3.900585529593493,-12016.56901370285,0.0,False,,False,,,,,29
609.5260000000001,2.1720017489999464,0.9677734375,0.324462890625,0.045654296875,22.076335877862594,6.290076335877862,7.450381679389313,22728,-14,0,3.900585529593493,-12016.56901370285,0.0,False,,False,,,,,29
609.5310000000001,2.174005948999934,0.978515625,0.326416015625,0.05126953125,21.832061068702288,6.1679389312977095,7.0534351145038165,22725,-14,1,3.908001301077868,-12016.548120646665,0.001314,False,,False,,,,,29
609.5310000000001,2.176005054999905,0.978515625,0.326416015625,0.05126953125,21.832061068702288,6.1679389312977095,7.0534351145038165,22725,-14,1,3.908001301077868,-12016.548120646665,0.001314,False,,False,,,,,29
609.5310000000001,2.178006718000006,0.978515625,0.326416015625,0.05126953125,21.832061068702288,6.1679389312977095,7.0534351145038165,22725,-14,1,3.908001301077868,-12016.548120646665,0.001314,False,,False,,,,,29
609.5360000000001,2.180008157999964,0.9921875,0.34521484375,0.063720703125,20.97709923664122,5.984732824427481,5.862595419847328,22716,-31,4,3.930248615530993,-12016.497617111921,0.005256,False,,False,,,,,29
609.5360000000001,2.1820096719999356,0.9921875,0.34521484375,0.063720703125,20.97709923664122,5.984732824427481,5.862595419847328,22716,-31,4,3.930248615530993,-12016.497617111921,0.005256,False,,False,,,,,29
609.541,2.1840131679999786,0.993408203125,0.356689453125,0.072021484375,20.12213740458015,5.526717557251908,3.847328244274809,22705,-54,3,3.957439777640368,-12016.39798880137,0.003942,False,,False,,,,,29
609.541,2.186012849000008,0.993408203125,0.356689453125,0.072021484375,20.12213740458015,5.526717557251908,3.847328244274809,22705,-54,3,3.957439777640368,-12016.39798880137,0.003942,False,,False,,,,,29
609.541,2.1880149369999344,0.993408203125,0.356689453125,0.072021484375,20.12213740458015,5.526717557251908,3.847328244274809,22705,-54,3,3.957439777640368,-12016.39798880137,0.003942,False,,False,,,,,29
609.546,2.190015895999977,0.975830078125,0.366455078125,0.067138671875,16.30534351145038,4.854961832061068,0.6412213740458015,22677,-129,-1,4.026653644827868,-12016.21033380542,-0.001314,False,,False,,,,,29
609.546,2.1920175949999248,0.975830078125,0.366455078125,0.067138671875,16.30534351145038,4.854961832061068,0.6412213740458015,22677,-129,-1,4.026653644827868,-12016.21033380542,-0.001314,False,,False,,,,,29
609.551,2.194021109000005,0.9716796875,0.349853515625,0.064453125,13.007633587786259,4.6106870229007635,-0.8244274809160305,22635,-184,-3,4.130474445609118,-12015.862177781812,-0.003942,False,,False,,,,,29
609.551,2.196020771999997,0.9716796875,0.349853515625,0.064453125,13.007633587786259,4.6106870229007635,-0.8244274809160305,22635,-184,-3,4.130474445609118,-12015.862177781812,-0.003942,False,,False,,,,,29
609.551,2.1980228420000003,0.9716796875,0.349853515625,0.064453125,13.007633587786259,4.6106870229007635,-0.8244274809160305,22635,-184,-3,4.130474445609118,-12015.862177781812,-0.003942,False,,False,,,,,29
609.556,2.2000477069999533,0.950927734375,0.345458984375,0.045166015625,11.083969465648854,3.0534351145038165,-4.885496183206107,22584,-233,-1,4.256542560843493,-12015.288009658765,-0.001314,False,,False,,,,,29
609.556,2.2020243889999165,0.950927734375,0.345458984375,0.045166015625,11.083969465648854,3.0534351145038165,-4.885496183206107,22584,-233,-1,4.256542560843493,-12015.288009658765,-0.001314,False,,False,,,,,29
609.561,2.2040285879999146,0.987060546875,0.38525390625,0.05615234375,9.465648854961831,1.0687022900763359,-7.938931297709924,22525,-266,8,4.402386066702868,-12014.461326002742,0.010512,False,,False,,,,,29
609.561,2.206027916999915,0.987060546875,0.38525390625,0.05615234375,9.465648854961831,1.0687022900763359,-7.938931297709924,22525,-266,8,4.402386066702868,-12014.461326002742,0.010512,False,,False,,,,,29
609.561,2.208030264999934,0.987060546875,0.38525390625,0.05615234375,9.465648854961831,1.0687022900763359,-7.938931297709924,22525,-266,8,4.402386066702868,-12014.461326002742,0.010512,False,,False,,,,,29
609.566,2.210031148999974,0.955810546875,0.369384765625,0.031982421875,7.694656488549618,1.618320610687023,-9.526717557251908,22460,-295,6,4.563061115530993,-12013.379711286341,0.007884,False,,False,,,,,29
609.566,2.2120328859999745,0.955810546875,0.369384765625,0.031982421875,7.694656488549618,1.618320610687023,-9.526717557251908,22460,-295,6,4.563061115530993,-12013.379711286341,0.007884,False,,False,,,,,29
609.571,2.2140363439999646,0.947998046875,0.353515625,0.032958984375,8.549618320610687,0.33587786259541985,-9.679389312977099,22392,-287,3,4.731151935843493,-12012.059160424116,0.003942,False,,False,,,,,29
609.571,2.2160349509999833,0.947998046875,0.353515625,0.032958984375,8.549618320610687,0.33587786259541985,-9.679389312977099,22392,-287,3,4.731151935843493,-12012.059160424116,0.003942,False,,False,,,,,29
609.571,2.218037261999939,0.947998046875,0.353515625,0.032958984375,8.549618320610687,0.33587786259541985,-9.679389312977099,22392,-287,3,4.731151935843493,-12012.059160424116,0.003942,False,,False,,,,,29
609.576,2.220037849999926,0.96435546875,0.359619140625,0.04052734375,10.931297709923664,-0.916030534351145,-10.473282442748092,22325,-290,-4,4.896770832327868,-12010.538011517538,-0.005256,False,,False,,,,,29
609.576,2.2220387899999423,0.96435546875,0.359619140625,0.04052734375,10.931297709923664,-0.916030534351145,-10.473282442748092,22325,-290,-4,4.896770832327868,-12010.538011517538,-0.005256,False,,False,,,,,29
609.581,2.2240416749999667,0.9794921875,0.34521484375,0.048828125,12.916030534351144,-0.9465648854961831,-9.404580152671755,22264,-263,-1,5.047558185843493,-12008.879914597288,-0.001314,False,,False,,,,,29
609.581,2.226041744999975,0.9794921875,0.34521484375,0.048828125,12.916030534351144,-0.9465648854961831,-9.404580152671755,22264,-263,-1,5.047558185843493,-12008.879914597288,-0.001314,False,,False,,,,,29
609.581,2.228043573999912,0.9794921875,0.34521484375,0.048828125,12.916030534351144,-0.9465648854961831,-9.404580152671755,22264,-263,-1,5.047558185843493,-12008.879914597288,-0.001314,False,,False,,,,,29
609.586,2.23004519899996,0.974609375,0.33984375,0.055419921875,15.66412213740458,-1.099236641221374,-8.458015267175572,22216,-209,4,5.166210529593493,-12007.177740817022,0.005256,False,,False,,,,,29
609.586,2.232046046999926,0.974609375,0.33984375,0.055419921875,15.66412213740458,-1.099236641221374,-8.458015267175572,22216,-209,4,5.166210529593493,-12007.177740817022,0.005256,False,,False,,,,,29
609.591,2.2340498569999454,0.959228515625,0.3125,0.06494140625,16.641221374045802,-1.282442748091603,-6.381679389312977,22176,-165,6,5.265087482718493,-12005.534945790243,0.007884,False,,False,,,,,29
609.591,2.236049557000001,0.959228515625,0.3125,0.06494140625,16.641221374045802,-1.282442748091603,-6.381679389312977,22176,-165,6,5.265087482718493,-12005.534945790243,0.007884,False,,False,,,,,29
609.591,2.2380515709999145,0.959228515625,0.3125,0.06494140625,16.641221374045802,-1.282442748091603,-6.381679389312977,22176,-165,6,5.265087482718493,-12005.534945790243,0.007884,False,,False,,,,,29
609.596,2.2400527149999334,0.955322265625,0.298583984375,0.076904296875,19.908396946564885,-0.916030534351145,-4.091603053435114,22148,-124,5,5.334301349905993,-12004.039070958726,0.0065699999999999995,False,,False,,,,,29
609.596,2.2420538769999894,0.955322265625,0.298583984375,0.076904296875,19.908396946564885,-0.916030534351145,-4.091603053435114,22148,-124,5,5.334301349905993,-12004.039070958726,0.0065699999999999995,False,,False,,,,,29
609.601,2.2440881869999885,0.992919921875,0.30322265625,0.092529296875,23.69465648854962,-0.3969465648854962,-2.5038167938931295,22132,-62,3,5.373852131155993,-12002.766647531133,0.003942,False,,False,,,,,29
609.601,2.2460567949999586,0.992919921875,0.30322265625,0.092529296875,23.69465648854962,-0.3969465648854962,-2.5038167938931295,22132,-62,3,5.373852131155993,-12002.766647531133,0.003942,False,,False,,,,,29
609.601,2.2480590309999116,0.992919921875,0.30322265625,0.092529296875,23.69465648854962,-0.3969465648854962,-2.5038167938931295,22132,-62,3,5.373852131155993,-12002.766647531133,0.003942,False,,False,,,,,29
609.606,2.2500602309999067,0.9775390625,0.291015625,0.082763671875,25.068702290076335,0.5801526717557252,-1.7099236641221374,22130,-10,0,5.378795978812243,-12001.789251976823,0.0,False,,False,,,,,29
609.606,2.252061522999952,0.9775390625,0.291015625,0.082763671875,25.068702290076335,0.5801526717557252,-1.7099236641221374,22130,-10,0,5.378795978812243,-12001.789251976823,0.0,False,,False,,,,,29
609.611,2.254065480999998,0.975830078125,0.291015625,0.094482421875,24.244274809160306,1.984732824427481,-1.8931297709923662,22129,-3,3,5.381267902640368,-12001.146418277125,0.003942,False,,False,,,,,29
609.611,2.2560640319999266,0.975830078125,0.291015625,0.094482421875,24.244274809160306,1.984732824427481,-1.8931297709923662,22129,-3,3,5.381267902640368,-12001.146418277125,0.003942,False,,False,,,,,29
609.611,2.258066120999956,0.975830078125,0.291015625,0.094482421875,24.244274809160306,1.984732824427481,-1.8931297709923662,22129,-3,3,5.381267902640368,-12001.146418277125,0.003942,False,,False,,,,,29
609.616,2.26006685699997,0.98046875,0.3056640625,0.086669921875,19.14503816793893,2.778625954198473,-2.4732824427480917,22131,-2,6,5.376324054984118,-12000.827005758203,0.007884,False,,False,,,,,29
609.616,2.2620683159999544,0.98046875,0.3056640625,0.086669921875,19.14503816793893,2.778625954198473,-2.4732824427480917,22131,-2,6,5.376324054984118,-12000.827005758203,0.007884,False,,False,,,,,29
609.621,2.2640724039999895,0.963134765625,0.32861328125,0.07666015625,18.381679389312975,3.2061068702290076,-2.2900763358778624,22130,-3,2,5.378795978812243,-12000.790144775785,0.002628,False,,False,,,,,29
609.621,2.266070936999995,0.963134765625,0.32861328125,0.07666015625,18.381679389312975,3.2061068702290076,-2.2900763358778624,22130,-3,2,5.378795978812243,-12000.790144775785,0.002628,False,,False,,,,,29
609.621,2.2680728219999082,0.963134765625,0.32861328125,0.07666015625,18.381679389312975,3.2061068702290076,-2.2900763358778624,22130,-3,2,5.378795978812243,-12000.790144775785,0.002628,False,,False,,,,,29
609.626,2.2700736509999615,0.9599609375,0.3515625,0.080810546875,19.267175572519083,3.4198473282442747,-2.6259541984732824,22130,-3,0,5.378795978812243,-12000.986783741882,0.0,False,,False,,,,,29
609.626,2.2720747390000042,0.9599609375,0.3515625,0.080810546875,19.267175572519083,3.4198473282442747,-2.6259541984732824,22130,-3,0,5.378795978812243,-12000.986783741882,0.0,False,,False,,,,,29
609.631,2.274077993999981,0.94873046875,0.3515625,0.070068359375,19.755725190839694,4.122137404580153,-3.2061068702290076,22131,8,-3,5.376324054984118,-12001.376055925612,-0.003942,False,,False,,,,,29
609.631,2.276077285999918,0.94873046875,0.3515625,0.070068359375,19.755725190839694,4.122137404580153,-3.2061068702290076,22131,8,-3,5.376324054984118,-12001.376055925612,-0.003942,False,,False,,,,,29
609.631,2.2780786889999263,0.94873046875,0.3515625,0.070068359375,19.755725190839694,4.122137404580153,-3.2061068702290076,22131,8,-3,5.376324054984118,-12001.376055925612,-0.003942,False,,False,,,,,29
609.636,2.280079943999908,0.93994140625,0.34814453125,0.068115234375,19.603053435114504,4.67175572519084,-3.541984732824427,22130,0,-2,5.378795978812243,-12001.922748329242,-0.002628,False,,False,,,,,29
609.636,2.2820818099999087,0.93994140625,0.34814453125,0.068115234375,19.603053435114504,4.67175572519084,-3.541984732824427,22130,0,-2,5.378795978812243,-12001.922748329242,-0.002628,False,,False,,,,,29
609.641,2.284085768999944,0.935791015625,0.34375,0.078857421875,19.755725190839694,4.061068702290076,-3.969465648854962,22130,5,0,5.378795978812243,-12002.589729261084,0.0,False,,False,,,,,29
609.641,2.2860848389999546,0.935791015625,0.34375,0.078857421875,19.755725190839694,4.061068702290076,-3.969465648854962,22130,5,0,5.378795978812243,-12002.589729261084,0.0,False,,False,,,,,29
609.641,2.2881139259999372,0.935791015625,0.34375,0.078857421875,19.755725190839694,4.061068702290076,-3.969465648854962,22130,5,0,5.378795978812243,-12002.589729261084,0.0,False,,False,,,,,29
609.646,2.2900877009999476,0.9248046875,0.337158203125,0.072021484375,19.450381679389313,4.213740458015267,-4.33587786259542,22131,0,-5,5.376324054984118,-12003.349541675725,-0.0065699999999999995,False,,False,,,,,29
609.646,2.2920883259999982,0.9248046875,0.337158203125,0.072021484375,19.450381679389313,4.213740458015267,-4.33587786259542,22131,0,-5,5.376324054984118,-12003.349541675725,-0.0065699999999999995,False,,False,,,,,29
609.6510000000001,2.2940920439999672,0.91845703125,0.33251953125,0.0693359375,19.175572519083968,4.33587786259542,-4.458015267175572,22130,-3,-5,5.378795978812243,-12004.17785421329,-0.0065699999999999995,False,,False,,,,,29
609.6510000000001,2.296091353999941,0.91845703125,0.33251953125,0.0693359375,19.175572519083968,4.33587786259542,-4.458015267175572,22130,-3,-5,5.378795978812243,-12004.17785421329,-0.0065699999999999995,False,,False,,,,,29
609.6510000000001,2.298093294999944,0.91845703125,0.33251953125,0.0693359375,19.175572519083968,4.33587786259542,-4.458015267175572,22130,-3,-5,5.378795978812243,-12004.17785421329,-0.0065699999999999995,False,,False,,,,,29
609.6560000000001,2.300094511999987,0.91796875,0.3232421875,0.06982421875,19.297709923664122,4.213740458015267,-4.824427480916031,22130,-2,-3,5.378795978812243,-12005.047933250735,-0.003942,False,,False,,,,,29
609.6560000000001,2.3020953789999794,0.91796875,0.3232421875,0.06982421875,19.297709923664122,4.213740458015267,-4.824427480916031,22130,-2,-3,5.378795978812243,-12005.047933250735,-0.003942,False,,False,,,,,29
609.6610000000001,2.3040985970000065,0.914306640625,0.3232421875,0.06591796875,18.80916030534351,3.847328244274809,-4.702290076335878,22129,-4,3,5.381267902640368,-12005.938583335668,0.003942,False,,False,,,,,29
609.6610000000001,2.3060980739999195,0.914306640625,0.3232421875,0.06591796875,18.80916030534351,3.847328244274809,-4.702290076335878,22129,-4,3,5.381267902640368,-12005.938583335668,0.003942,False,,False,,,,,29
609.6610000000001,2.30810012500001,0.914306640625,0.3232421875,0.06591796875,18.80916030534351,3.847328244274809,-4.702290076335878,22129,-4,3,5.381267902640368,-12005.938583335668,0.003942,False,,False,,,,,29
609.666,2.310101268999915,0.92041015625,0.326416015625,0.06787109375,18.259541984732824,3.145038167938931,-5.129770992366412,22128,0,1,5.383739826468493,-12006.831762017135,0.001314,False,,False,,,,,29
609.666,2.3121040049999237,0.92041015625,0.326416015625,0.06787109375,18.259541984732824,3.145038167938931,-5.129770992366412,22128,0,1,5.383739826468493,-12006.831762017135,0.001314,False,,False,,,,,29
609.671,2.314107000999911,0.913330078125,0.331787109375,0.0703125,18.106870229007633,2.5038167938931295,-5.6183206106870225,22125,-11,-4,5.391155597952868,-12007.708746845841,-0.005256,False,,False,,,,,29
609.671,2.3161053489999404,0.913330078125,0.331787109375,0.0703125,18.106870229007633,2.5038167938931295,-5.6183206106870225,22125,-11,-4,5.391155597952868,-12007.708746845841,-0.005256,False,,False,,,,,29
609.671,2.3181066219999593,0.913330078125,0.331787109375,0.0703125,18.106870229007633,2.5038167938931295,-5.6183206106870225,22125,-11,-4,5.391155597952868,-12007.708746845841,-0.005256,False,,False,,,,,29
609.676,2.3201077479999412,0.906982421875,0.36279296875,0.067138671875,16.580152671755723,1.0687022900763359,-6.687022900763359,22119,-30,-3,5.405987140921618,-12008.546936310013,-0.003942,False,,False,,,,,29
609.676,2.3221090399999866,0.906982421875,0.36279296875,0.067138671875,16.580152671755723,1.0687022900763359,-6.687022900763359,22119,-30,-3,5.405987140921618,-12008.546936310013,-0.003942,False,,False,,,,,29
609.681,2.3241129799999953,0.909912109375,0.379638671875,0.070068359375,15.419847328244273,0.0,-8.305343511450381,22104,-70,3,5.443065998343493,-12009.310065814849,0.003942,False,,False,,,,,29
609.681,2.326112086999956,0.909912109375,0.379638671875,0.070068359375,15.419847328244273,0.0,-8.305343511450381,22104,-70,3,5.443065998343493,-12009.310065814849,0.003942,False,,False,,,,,29
609.681,2.328114007999943,0.909912109375,0.379638671875,0.070068359375,15.419847328244273,0.0,-8.305343511450381,22104,-70,3,5.443065998343493,-12009.310065814849,0.003942,False,,False,,,,,29
609.686,2.3301150969999753,0.902587890625,0.371826171875,0.056640625,14.320610687022901,-0.33587786259541985,-8.6412213740458,22083,-96,2,5.494976398734118,-12009.950957638392,0.002628,False,,False,,,,,29
609.686,2.332115832999989,0.902587890625,0.371826171875,0.056640625,14.320610687022901,-0.33587786259541985,-8.6412213740458,22083,-96,2,5.494976398734118,-12009.950957638392,0.002628,False,,False,,,,,29
609.691,2.3341184949999843,0.919921875,0.368408203125,0.05224609375,16.641221374045802,-0.5801526717557252,-7.908396946564885,22064,-80,1,5.541942951468493,-12010.446210314614,0.001314,False,,False,,,,,29
609.691,2.3361190099999476,0.919921875,0.368408203125,0.05224609375,16.641221374045802,-0.5801526717557252,-7.908396946564885,22064,-80,1,5.541942951468493,-12010.446210314614,0.001314,False,,False,,,,,29
609.691,2.33812013499994,0.919921875,0.368408203125,0.05224609375,16.641221374045802,-0.5801526717557252,-7.908396946564885,22064,-80,1,5.541942951468493,-12010.446210314614,0.001314,False,,False,,,,,29
609.696,2.340121167999996,0.911376953125,0.37548828125,0.04833984375,16.15267175572519,-1.3435114503816794,-9.679389312977099,22040,-100,-6,5.601269123343493,-12010.799828449975,-0.007884,False,,False,,,,,29
609.696,2.3421221259999356,0.911376953125,0.37548828125,0.04833984375,16.15267175572519,-1.3435114503816794,-9.679389312977099,22040,-100,-6,5.601269123343493,-12010.799828449975,-0.007884,False,,False,,,,,29
609.701,2.3441248809999706,0.92236328125,0.356689453125,0.049560546875,15.511450381679388,-1.7099236641221374,-8.335877862595419,22013,-117,-7,5.668011066702868,-12011.01005443165,-0.009198,False,,False,,,,,29
609.701,2.346124839999902,0.92236328125,0.356689453125,0.049560546875,15.511450381679388,-1.7099236641221374,-8.335877862595419,22013,-117,-7,5.668011066702868,-12011.01005443165,-0.009198,False,,False,,,,,29
609.701,2.348126205999961,0.92236328125,0.356689453125,0.049560546875,15.511450381679388,-1.7099236641221374,-8.335877862595419,22013,-117,-7,5.668011066702868,-12011.01005443165,-0.009198,False,,False,,,,,29
609.706,2.350127923999935,0.954345703125,0.36962890625,0.065673828125,19.48091603053435,-2.045801526717557,-7.175572519083969,21992,-87,-6,5.719921467093493,-12011.088237126281,-0.007884,False,,False,,,,,29
609.706,2.352128900999901,0.954345703125,0.36962890625,0.065673828125,19.48091603053435,-2.045801526717557,-7.175572519083969,21992,-87,-6,5.719921467093493,-12011.088237126281,-0.007884,False,,False,,,,,29
609.711,2.3541326009999466,0.932373046875,0.371826171875,0.0634765625,20.27480916030534,-2.0763358778625953,-7.541984732824427,21972,-96,-8,5.769359943655993,-12011.07264803422,-0.010512,False,,False,,,,,29
609.711,2.356132410999976,0.932373046875,0.371826171875,0.0634765625,20.27480916030534,-2.0763358778625953,-7.541984732824427,21972,-96,-8,5.769359943655993,-12011.07264803422,-0.010512,False,,False,,,,,29
609.711,2.3581341659999,0.932373046875,0.371826171875,0.0634765625,20.27480916030534,-2.0763358778625953,-7.541984732824427,21972,-96,-8,5.769359943655993,-12011.07264803422,-0.010512,False,,False,,,,,29
609.716,2.360135772999911,0.94482421875,0.35791015625,0.072265625,18.35114503816794,-2.259541984732824,-6.412213740458015,21947,-105,-10,5.831158039359118,-12010.98415227034,-0.013139999999999999,False,,False,,,,,29
609.716,2.3621370839999827,0.94482421875,0.35791015625,0.072265625,18.35114503816794,-2.259541984732824,-6.412213740458015,21947,-105,-10,5.831158039359118,-12010.98415227034,-0.013139999999999999,False,,False,,,,,29
609.721,2.3641403759999093,0.94775390625,0.381103515625,0.0771484375,19.267175572519083,-2.5038167938931295,-6.870229007633587,21923,-104,-3,5.890484211234118,-12010.821578359113,-0.003942,False,,False,,,,,29
609.721,2.3661396489999333,0.94775390625,0.381103515625,0.0771484375,19.267175572519083,-2.5038167938931295,-6.870229007633587,21923,-104,-3,5.890484211234118,-12010.821578359113,-0.003942,False,,False,,,,,29
609.721,2.3681414229999973,0.94775390625,0.381103515625,0.0771484375,19.267175572519083,-2.5038167938931295,-6.870229007633587,21923,-104,-3,5.890484211234118,-12010.821578359113,-0.003942,False,,False,,,,,29
609.726,2.370142658999953,0.924072265625,0.396240234375,0.072998046875,16.30534351145038,-3.2061068702290076,-8.610687022900763,21890,-151,5,5.972057697562243,-12010.577856695882,0.0065699999999999995,False,,False,,,,,29
609.726,2.372143876999985,0.924072265625,0.396240234375,0.072998046875,16.30534351145038,-3.2061068702290076,-8.610687022900763,21890,-151,5,5.972057697562243,-12010.577856695882,0.0065699999999999995,False,,False,,,,,29
609.731,2.3741475209999408,0.925048828125,0.360107421875,0.068115234375,15.511450381679388,-2.5038167938931295,-7.022900763358779,21853,-169,-1,6.063518879202868,-12010.232129765094,-0.001314,False,,False,,,,,29
609.731,2.3761466459999383,0.925048828125,0.360107421875,0.068115234375,15.511450381679388,-2.5038167938931295,-7.022900763358779,21853,-169,-1,6.063518879202868,-12010.232129765094,-0.001314,False,,False,,,,,29
609.731,2.3781488829999944,0.925048828125,0.360107421875,0.068115234375,15.511450381679388,-2.5038167938931295,-7.022900763358779,21853,-169,-1,6.063518879202868,-12010.232129765094,-0.001314,False,,False,,,,,29
609.736,2.380149878999987,0.9130859375,0.349365234375,0.0556640625,17.19083969465649,-2.198473282442748,-6.106870229007633,21815,-168,-2,6.157451984671618,-12009.773785272311,-0.002628,False,,False,,,,,29
609.736,2.382151244999932,0.9130859375,0.349365234375,0.0556640625,17.19083969465649,-2.198473282442748,-6.106870229007633,21815,-168,-2,6.157451984671618,-12009.773785272311,-0.002628,False,,False,,,,,29
609.741,2.3841560919998983,0.95068359375,0.375,0.068603515625,18.68702290076336,-2.931297709923664,-6.870229007633587,21777,-163,-3,6.251385090140368,-12009.217056309122,-0.003942,False,,False,,,,,29
609.741,2.3861553099999355,0.95068359375,0.375,0.068603515625,18.68702290076336,-2.931297709923664,-6.870229007633587,21777,-163,-3,6.251385090140368,-12009.217056309122,-0.003942,False,,False,,,,,29
609.741,2.388155731999973,0.95068359375,0.375,0.068603515625,18.68702290076336,-2.931297709923664,-6.870229007633587,21777,-163,-3,6.251385090140368,-12009.217056309122,-0.003942,False,,False,,,,,29
609.746,2.390161024000008,0.908203125,0.332275390625,0.052978515625,16.30534351145038,-2.595419847328244,-6.290076335877862,21739,-170,0,6.345318195609118,-12008.584236348353,0.0,False,,False,,,,,29
609.746,2.3921615189999557,0.908203125,0.332275390625,0.052978515625,16.30534351145038,-2.595419847328244,-6.290076335877862,21739,-170,0,6.345318195609118,-12008.584236348353,0.0,False,,False,,,,,29
609.751,2.3941655149999406,0.946044921875,0.346923828125,0.0634765625,17.19083969465649,-2.778625954198473,-6.259541984732824,21699,-180,0,6.444195148734118,-12007.893300881668,0.0,False,,False,,,,,29
609.751,2.396162603999983,0.946044921875,0.346923828125,0.0634765625,17.19083969465649,-2.778625954198473,-6.259541984732824,21699,-180,0,6.444195148734118,-12007.893300881668,0.0,False,,False,,,,,29
609.751,2.398166561999915,0.946044921875,0.346923828125,0.0634765625,17.19083969465649,-2.778625954198473,-6.259541984732824,21699,-180,0,6.444195148734118,-12007.893300881668,0.0,False,,False,,,,,29
609.756,2.400165261999973,0.951171875,0.3447265625,0.06005859375,16.732824427480914,-3.3893129770992365,-6.65648854961832,21658,-178,3,6.545544025687243,-12007.154769051773,0.003942,False,,False,,,,,29
609.756,2.4021654059999946,0.951171875,0.3447265625,0.06005859375,16.732824427480914,-3.3893129770992365,-6.65648854961832,21658,-178,3,6.545544025687243,-12007.154769051773,0.003942,False,,False,,,,,29
609.761,2.4041701599999215,0.905517578125,0.320068359375,0.0390625,13.923664122137405,-4.091603053435114,-6.900763358778626,21609,-221,4,6.666668293265368,-12006.365603278235,0.005256,False,,False,,,,,29
609.761,2.406170933999988,0.905517578125,0.320068359375,0.0390625,13.923664122137405,-4.091603053435114,-6.900763358778626,21609,-221,4,6.666668293265368,-12006.365603278235,0.005256,False,,False,,,,,29
609.761,2.4081729479999012,0.905517578125,0.320068359375,0.0390625,13.923664122137405,-4.091603053435114,-6.900763358778626,21609,-221,4,6.666668293265368,-12006.365603278235,0.005256,False,,False,,,,,29
609.766,2.410175128999981,0.947509765625,0.353759765625,0.052734375,13.038167938931297,-5.007633587786259,-8.15267175572519,21556,-241,0,6.797680256155993,-12005.50787953702,0.0,False,,False,,,,,29
609.766,2.412173457999984,0.947509765625,0.353759765625,0.052734375,13.038167938931297,-5.007633587786259,-8.15267175572519,21556,-241,0,6.797680256155993,-12005.50787953702,0.0,False,,False,,,,,29
609.771,2.414180953999903,0.906982421875,0.31689453125,0.024658203125,12.305343511450381,-4.580152671755725,-7.022900763358779,21500,-256,2,6.936107990530993,-12004.57116635292,0.002628,False,,False,,,,,30
609.771,2.416176672000006,0.906982421875,0.31689453125,0.024658203125,12.305343511450381,-4.580152671755725,-7.022900763358779,21500,-256,2,6.936107990530993,-12004.57116635292,0.002628,False,,False,,,,,30
609.771,2.4181780749999007,0.906982421875,0.31689453125,0.024658203125,12.305343511450381,-4.580152671755725,-7.022900763358779,21500,-256,2,6.936107990530993,-12004.57116635292,0.002628,False,,False,,,,,30
609.7760000000001,2.420179755999925,0.9228515625,0.366455078125,0.02587890625,9.618320610687023,-6.534351145038167,-10.13740458015267,21434,-295,2,7.099254963187243,-12003.546084479563,0.002628,False,,False,,,,,30
609.7760000000001,2.422180214999912,0.9228515625,0.366455078125,0.02587890625,9.618320610687023,-6.534351145038167,-10.13740458015267,21434,-295,2,7.099254963187243,-12003.546084479563,0.002628,False,,False,,,,,30
609.7810000000001,2.4241849329999923,0.912841796875,0.333984375,0.01025390625,8.977099236641221,-6.442748091603053,-9.709923664122137,21364,-317,-1,7.272289631155993,-12002.413528427809,-0.001314,False,,False,,,,,29
609.7810000000001,2.426183761999937,0.912841796875,0.333984375,0.01025390625,8.977099236641221,-6.442748091603053,-9.709923664122137,21364,-317,-1,7.272289631155993,-12002.413528427809,-0.001314,False,,False,,,,,29
609.7810000000001,2.42818596099994,0.912841796875,0.333984375,0.01025390625,8.977099236641221,-6.442748091603053,-9.709923664122137,21364,-317,-1,7.272289631155993,-12002.413528427809,-0.001314,False,,False,,,,,29
609.7860000000001,2.4301873089999617,0.927490234375,0.3359375,0.006591796875,10.045801526717558,-6.809160305343511,-10.045801526717558,21293,-313,2,7.447796222952868,-12001.173384417,0.002628,False,,False,,,,,29
609.7860000000001,2.432187785999986,0.927490234375,0.3359375,0.006591796875,10.045801526717558,-6.809160305343511,-10.045801526717558,21293,-313,2,7.447796222952868,-12001.173384417,0.002628,False,,False,,,,,29
609.791,2.4341918929999338,0.92041015625,0.31787109375,0.000244140625,10.045801526717558,-6.687022900763359,-10.076335877862595,21221,-315,-2,7.625774738577868,-11999.848601839352,-0.002628,False,,False,,,,,30
609.791,2.4361909069999683,0.92041015625,0.31787109375,0.000244140625,10.045801526717558,-6.687022900763359,-10.076335877862595,21221,-315,-2,7.625774738577868,-11999.848601839352,-0.002628,False,,False,,,,,30
609.791,2.4381927359999054,0.92041015625,0.31787109375,0.000244140625,10.045801526717558,-6.687022900763359,-10.076335877862595,21221,-315,-2,7.625774738577868,-11999.848601839352,-0.002628,False,,False,,,,,30
609.796,2.4401936019999084,0.94189453125,0.301025390625,-0.001220703125,7.603053435114504,-6.931297709923664,-11.022900763358779,21147,-328,3,7.808697101859118,-11998.463200648017,0.003942,False,,False,,,,,30
609.796,2.4421947089999776,0.94189453125,0.301025390625,-0.001220703125,7.603053435114504,-6.931297709923664,-11.022900763358779,21147,-328,3,7.808697101859118,-11998.463200648017,0.003942,False,,False,,,,,30
609.801,2.44419979700001,0.930419921875,0.287841796875,-0.0068359375,4.916030534351145,-7.083969465648854,-11.511450381679388,21067,-354,-6,8.006451008109117,-11997.027425047281,-0.007884,False,,False,,,,,30
609.801,2.446197755999947,0.930419921875,0.287841796875,-0.0068359375,4.916030534351145,-7.083969465648854,-11.511450381679388,21067,-354,-6,8.006451008109117,-11997.027425047281,-0.007884,False,,False,,,,,30
609.801,2.4482038809999267,0.930419921875,0.287841796875,-0.0068359375,4.916030534351145,-7.083969465648854,-11.511450381679388,21067,-354,-6,8.006451008109117,-11997.027425047281,-0.007884,False,,False,,,,,30
609.806,2.450204117999988,0.935791015625,0.3017578125,-0.00830078125,3.3893129770992365,-7.206106870229007,-12.213740458015266,20984,-375,-4,8.211620685843492,-11995.539838032279,-0.005256,False,,False,,,,,30
609.806,2.45220394699993,0.935791015625,0.3017578125,-0.00830078125,3.3893129770992365,-7.206106870229007,-12.213740458015266,20984,-375,-4,8.211620685843492,-11995.539838032279,-0.005256,False,,False,,,,,30
609.811,2.454208145999928,0.931884765625,0.299072265625,-0.01123046875,1.8625954198473282,-7.938931297709924,-12.977099236641221,20894,-388,0,8.434093830374742,-11993.996406138329,0.0,False,,False,,,,,30
609.811,2.4562064009999176,0.931884765625,0.299072265625,-0.01123046875,1.8625954198473282,-7.938931297709924,-12.977099236641221,20894,-388,0,8.434093830374742,-11993.996406138329,0.0,False,,False,,,,,30
609.811,2.458209525999905,0.931884765625,0.299072265625,-0.01123046875,1.8625954198473282,-7.938931297709924,-12.977099236641221,20894,-388,0,8.434093830374742,-11993.996406138329,0.0,False,,False,,,,,30
609.816,2.4602116329999717,0.933349609375,0.292236328125,-0.021484375,2.6259541984732824,-7.419847328244274,-11.938931297709923,20806,-378,2,8.651623127249742,-11992.401723648942,0.002628,False,,False,,,,,30
609.816,2.4622103509999533,0.933349609375,0.292236328125,-0.021484375,2.6259541984732824,-7.419847328244274,-11.938931297709923,20806,-378,2,8.651623127249742,-11992.401723648942,0.002628,False,,False,,,,,30
609.821,2.4642155689999754,0.94921875,0.30078125,-0.0224609375,2.259541984732824,-7.022900763358779,-11.450381679389313,20721,-372,4,8.861736652640367,-11990.787236829816,0.005256,False,,False,,,,,29
609.821,2.4662152129999413,0.94921875,0.30078125,-0.0224609375,2.259541984732824,-7.022900763358779,-11.450381679389313,20721,-372,4,8.861736652640367,-11990.787236829816,0.005256,False,,False,,,,,29
609.821,2.4682228939999504,0.94921875,0.30078125,-0.0224609375,2.259541984732824,-7.022900763358779,-11.450381679389313,20721,-372,4,8.861736652640367,-11990.787236829816,0.005256,False,,False,,,,,29
609.826,2.4702225190000036,0.93310546875,0.306640625,-0.031494140625,0.5190839694656488,-8.305343511450381,-12.396946564885496,20631,-392,2,9.084209797171617,-11989.184930329993,0.002628,False,,False,,,,,29
609.826,2.472225218999938,0.93310546875,0.306640625,-0.031494140625,0.5190839694656488,-8.305343511450381,-12.396946564885496,20631,-392,2,9.084209797171617,-11989.184930329993,0.002628,False,,False,,,,,29
609.831,2.474225787999899,0.924072265625,0.3115234375,-0.030517578125,-1.0687022900763359,-7.908396946564885,-11.938931297709923,20538,-413,-6,9.314098713187242,-11987.598128103657,-0.007884,False,,False,,,,,29
609.831,2.476230042999987,0.924072265625,0.3115234375,-0.030517578125,-1.0687022900763359,-7.908396946564885,-11.938931297709923,20538,-413,-6,9.314098713187242,-11987.598128103657,-0.007884,False,,False,,,,,29
609.831,2.4782320580000032,0.924072265625,0.3115234375,-0.030517578125,-1.0687022900763359,-7.908396946564885,-11.938931297709923,20538,-413,-6,9.314098713187242,-11987.598128103657,-0.007884,False,,False,,,,,29
609.836,2.480230034999977,0.93212890625,0.33251953125,-0.044189453125,-1.618320610687023,-7.32824427480916,-11.236641221374045,20442,-422,0,9.551403400687242,-11986.022226281428,0.0,False,,False,,,,,29
609.836,2.4822308819999535,0.93212890625,0.33251953125,-0.044189453125,-1.618320610687023,-7.32824427480916,-11.236641221374045,20442,-422,0,9.551403400687242,-11986.022226281428,0.0,False,,False,,,,,29
609.841,2.48423422999997,0.957275390625,0.353271484375,-0.041015625,0.3969465648854962,-6.870229007633587,-10.473282442748092,20348,-408,6,9.783764240530992,-11984.465746206335,0.007884,False,,False,,,,,30
609.841,2.4862336329999835,0.957275390625,0.353271484375,-0.041015625,0.3969465648854962,-6.870229007633587,-10.473282442748092,20348,-408,6,9.783764240530992,-11984.465746206335,0.007884,False,,False,,,,,30
609.841,2.4882359069999893,0.957275390625,0.353271484375,-0.041015625,0.3969465648854962,-6.870229007633587,-10.473282442748092,20348,-408,6,9.783764240530992,-11984.465746206335,0.007884,False,,False,,,,,30
609.846,2.490237031999982,0.95654296875,0.357421875,-0.045654296875,0.7938931297709924,-6.198473282442748,-9.709923664122137,20256,-407,0,10.011181232718492,-11982.953445474546,0.0,False,,False,,,,,30
609.846,2.4922376389999954,0.95654296875,0.357421875,-0.045654296875,0.7938931297709924,-6.198473282442748,-9.709923664122137,20256,-407,0,10.011181232718492,-11982.953445474546,0.0,False,,False,,,,,30
609.851,2.494241208999938,0.953857421875,0.378173828125,-0.045166015625,-0.24427480916030533,-6.564885496183206,-10.229007633587786,20162,-422,0,10.243542072562242,-11981.507201181423,0.0,False,,False,,,,,30
609.851,2.4962406859999646,0.953857421875,0.378173828125,-0.045166015625,-0.24427480916030533,-6.564885496183206,-10.229007633587786,20162,-422,0,10.243542072562242,-11981.507201181423,0.0,False,,False,,,,,30
609.851,2.498243069999944,0.953857421875,0.378173828125,-0.045166015625,-0.24427480916030533,-6.564885496183206,-10.229007633587786,20162,-422,0,10.243542072562242,-11981.507201181423,0.0,False,,False,,,,,30
609.856,2.500244658999918,0.94873046875,0.43505859375,-0.031494140625,-0.030534351145038167,-5.893129770992366,-9.34351145038168,20062,-437,7,10.490734455374742,-11980.122885438253,0.009198,False,,False,,,,,30
609.856,2.502245542999958,0.94873046875,0.43505859375,-0.031494140625,-0.030534351145038167,-5.893129770992366,-9.34351145038168,20062,-437,7,10.490734455374742,-11980.122885438253,0.009198,False,,False,,,,,30
609.861,2.504249945999959,0.927978515625,0.418212890625,-0.03515625,2.198473282442748,-4.33587786259542,-7.66412213740458,19959,-445,7,10.745342609671617,-11978.78003077291,0.009198,False,,False,,,,,30
609.861,2.5062482569999247,0.927978515625,0.418212890625,-0.03515625,2.198473282442748,-4.33587786259542,-7.66412213740458,19959,-445,7,10.745342609671617,-11978.78003077291,0.009198,False,,False,,,,,30
609.861,2.5082505859999173,0.927978515625,0.418212890625,-0.03515625,2.198473282442748,-4.33587786259542,-7.66412213740458,19959,-445,7,10.745342609671617,-11978.78003077291,0.009198,False,,False,,,,,30
609.866,2.5102513409999574,0.9404296875,0.42724609375,-0.025146484375,4.122137404580153,-3.633587786259542,-7.938931297709924,19858,-449,4,10.995006916312242,-11977.47343508717,0.005256,False,,False,,,,,30
609.866,2.512253170000008,0.9404296875,0.42724609375,-0.025146484375,4.122137404580153,-3.633587786259542,-7.938931297709924,19858,-449,4,10.995006916312242,-11977.47343508717,0.005256,False,,False,,,,,30
609.871,2.5142566289999877,0.918212890625,0.408935546875,-0.033935546875,4.244274809160305,-1.7404580152671756,-7.877862595419847,19750,-476,5,11.261974689749742,-11976.205380022611,0.0065699999999999995,False,,False,,,,,29
609.871,2.5162558099999615,0.918212890625,0.408935546875,-0.033935546875,4.244274809160305,-1.7404580152671756,-7.877862595419847,19750,-476,5,11.261974689749742,-11976.205380022611,0.0065699999999999995,False,,False,,,,,29
609.871,2.5182579169999144,0.918212890625,0.408935546875,-0.033935546875,4.244274809160305,-1.7404580152671756,-7.877862595419847,19750,-476,5,11.261974689749742,-11976.205380022611,0.0065699999999999995,False,,False,,,,,29
609.876,2.520259022999994,0.897705078125,0.40673828125,-0.03125,3.0229007633587783,0.5801526717557252,-8.274809160305344,19637,-504,-1,11.541302082327867,-11974.957521854445,-0.001314,False,,False,,,,,29
609.876,2.5222597409999707,0.897705078125,0.40673828125,-0.03125,3.0229007633587783,0.5801526717557252,-8.274809160305344,19637,-504,-1,11.541302082327867,-11974.957521854445,-0.001314,False,,False,,,,,29
609.881,2.5242624039999555,0.88330078125,0.4072265625,-0.031494140625,3.0534351145038165,1.4351145038167938,-8.122137404580153,19516,-539,-5,11.840404865530992,-11973.699886932622,-0.0065699999999999995,False,,False,,,,,29
609.881,2.526262936999956,0.88330078125,0.4072265625,-0.031494140625,3.0534351145038165,1.4351145038167938,-8.122137404580153,19516,-539,-5,11.840404865530992,-11973.699886932622,-0.0065699999999999995,False,,False,,,,,29
609.881,2.5282653769999115,0.88330078125,0.4072265625,-0.031494140625,3.0534351145038165,1.4351145038167938,-8.122137404580153,19516,-539,-5,11.840404865530992,-11973.699886932622,-0.0065699999999999995,False,,False,,,,,29
609.886,2.530266557999994,0.8876953125,0.40380859375,-0.0263671875,4.122137404580153,2.900763358778626,-7.8473282442748085,19390,-566,1,12.151867267874742,-11972.405732996285,0.001314,False,,False,,,,,29
609.886,2.53226749800001,0.8876953125,0.40380859375,-0.0263671875,4.122137404580153,2.900763358778626,-7.8473282442748085,19390,-566,1,12.151867267874742,-11972.405732996285,0.001314,False,,False,,,,,29
609.891,2.53427099299995,0.856201171875,0.39013671875,-0.033203125,3.9389312977099236,3.3587786259541983,-7.572519083969465,19254,-604,4,12.488048908499742,-11971.049619947955,0.005256,False,,False,,,,,29
609.891,2.536270396999953,0.856201171875,0.39013671875,-0.033203125,3.9389312977099236,3.3587786259541983,-7.572519083969465,19254,-604,4,12.488048908499742,-11971.049619947955,0.005256,False,,False,,,,,29
609.891,2.5382720029999746,0.856201171875,0.39013671875,-0.033203125,3.9389312977099236,3.3587786259541983,-7.572519083969465,19254,-604,4,12.488048908499742,-11971.049619947955,0.005256,False,,False,,,,,29
