state_time,loop_time,accel_x,accel_y,accel_z,gyro_x,gyro_y,gyro_z,motor_angle,motor_velocity,motor_current,hip_angle,hip_velocity,hip_torque_from_current,did_heel_strike,gait_phase,did_toe_off,commanded_current,commanded_position,commanded_torque,commanded_voltage,temperature
2531.4790000000003,2.38883480100003,-0.953369140625,0.266845703125,-0.017333984375,1.3740458015267174,0.0,-0.3053435114503817,38660,-6,1,-0.3240288748183606,0.005988364776758199,0.001314,False,,False,,,,,33
2531.4790000000003,2.390837071000078,-0.953369140625,0.266845703125,-0.017333984375,1.3740458015267174,0.0,-0.3053435114503817,38660,-6,1,-0.3240288748183606,0.005988364776758199,0.001314,False,,False,,,,,33
2531.4790000000003,2.3928366000000096,-0.953369140625,0.266845703125,-0.017333984375,1.3740458015267174,0.0,-0.3053435114503817,38660,-6,1,-0.3240288748183606,0.005988364776758199,0.001314,False,,False,,,,,33
2531.484,2.3948387780001212,-0.956787109375,0.2666015625,-0.0185546875,1.099236641221374,-0.12213740458015267,-0.2748091603053435,38662,2,3,-0.3190850271621106,69.46394409092323,0.003942,False,,False,,,,,33
2531.484,2.3969722870001533,-0.956787109375,0.2666015625,-0.0185546875,1.099236641221374,-0.12213740458015267,-0.2748091603053435,38662,2,3,-0.3190850271621106,69.46394409092323,0.003942,False,,False,,,,,33
2531.489,2.3989719460000742,-0.956787109375,0.265869140625,-0.01611328125,1.1908396946564885,-0.061068702290076333,-0.24427480916030533,38662,2,6,-0.3190850271621106,334.9802418603674,0.007884,False,,False,,,,,33
2531.489,2.400973272000101,-0.956787109375,0.265869140625,-0.01611328125,1.1908396946564885,-0.061068702290076333,-0.24427480916030533,38662,2,6,-0.3190850271621106,334.9802418603674,0.007884,False,,False,,,,,33
2531.489,2.402974765000181,-0.956787109375,0.265869140625,-0.01611328125,1.1908396946564885,-0.061068702290076333,-0.24427480916030533,38662,2,6,-0.3190850271621106,334.9802418603674,0.007884,False,,False,,,,,33
2531.494,2.4049769240000387,-0.955322265625,0.265869140625,-0.017822265625,1.129770992366412,0.15267175572519084,-0.183206106870229,38661,1,3,-0.3215569509902356,830.2370258500317,0.003942,False,,False,,,,,33
2531.494,2.4069779350002136,-0.955322265625,0.265869140625,-0.017822265625,1.129770992366412,0.15267175572519084,-0.183206106870229,38661,1,3,-0.3215569509902356,830.2370258500317,0.003942,False,,False,,,,,33
2531.4990000000003,2.408979982999881,-0.958984375,0.266845703125,-0.017822265625,1.2519083969465647,-0.12213740458015267,-0.3053435114503817,38661,-2,0,-0.3215569509902356,1510.64830857621,0.0,False,,False,,,,,33
2531.4990000000003,2.4109812530000454,-0.958984375,0.266845703125,-0.017822265625,1.2519083969465647,-0.12213740458015267,-0.3053435114503817,38661,-2,0,-0.3215569509902356,1510.64830857621,0.0,False,,False,,,,,33
2531.4990000000003,2.4129830599999877,-0.958984375,0.266845703125,-0.017822265625,1.2519083969465647,-0.12213740458015267,-0.3053435114503817,38661,-2,0,-0.3215569509902356,1510.64830857621,0.0,False,,False,,,,,33
2531.504,2.4149844600001416,-0.957275390625,0.269287109375,-0.01611328125,1.1603053435114503,-0.183206106870229,-0.3053435114503817,38661,1,0,-0.3215569509902356,2336.212398941795,0.0,False,,False,,,,,33
2531.504,2.4169865449998724,-0.957275390625,0.269287109375,-0.01611328125,1.1603053435114503,-0.183206106870229,-0.3053435114503817,38661,1,0,-0.3215569509902356,2336.212398941795,0.0,False,,False,,,,,33
2531.509,2.4189874640001108,-0.95947265625,0.265380859375,-0.017822265625,1.1908396946564885,-0.15267175572519084,-0.2748091603053435,38661,2,2,-0.3215569509902356,3271.3378261800062,0.002628,False,,False,,,,,33
2531.509,2.4209885119998944,-0.95947265625,0.265380859375,-0.017822265625,1.1908396946564885,-0.15267175572519084,-0.2748091603053435,38661,2,2,-0.3215569509902356,3271.3378261800062,0.002628,False,,False,,,,,33
2531.509,2.4229901520002386,-0.95947265625,0.265380859375,-0.017822265625,1.1908396946564885,-0.15267175572519084,-0.2748091603053435,38661,2,2,-0.3215569509902356,3271.3378261800062,0.002628,False,,False,,,,,33
2531.514,2.424992312000086,-0.961181640625,0.2666015625,-0.018798828125,1.0687022900763359,0.0,-0.3969465648854962,38661,2,3,-0.3215569509902356,4284.639088432869,0.003942,False,,False,,,,,32
2531.514,2.4269936740001867,-0.961181640625,0.2666015625,-0.018798828125,1.0687022900763359,0.0,-0.3969465648854962,38661,2,3,-0.3215569509902356,4284.639088432869,0.003942,False,,False,,,,,32
2531.5190000000002,2.4289975930000764,-0.9560546875,0.263427734375,-0.01806640625,1.1908396946564885,-0.061068702290076333,-0.3053435114503817,38662,1,2,-0.3190850271621106,5348.710098027247,0.002628,False,,False,,,,,32
2531.5190000000002,2.4309963450000396,-0.9560546875,0.263427734375,-0.01806640625,1.1908396946564885,-0.061068702290076333,-0.3053435114503817,38662,1,2,-0.3190850271621106,5348.710098027247,0.002628,False,,False,,,,,32
2531.5190000000002,2.432998004000183,-0.9560546875,0.263427734375,-0.01806640625,1.1908396946564885,-0.061068702290076333,-0.3053435114503817,38662,1,2,-0.3190850271621106,5348.710098027247,0.002628,False,,False,,,,,32
2531.524,2.43499921800003,-0.955810546875,0.26611328125,-0.017333984375,0.9465648854961831,-0.030534351145038167,-0.366412213740458,38662,0,1,-0.3190850271621106,6439.871493821252,0.001314,False,,False,,,,,33
2531.524,2.4370010259999617,-0.955810546875,0.26611328125,-0.017333984375,0.9465648854961831,-0.030534351145038167,-0.366412213740458,38662,0,1,-0.3190850271621106,6439.871493821252,0.001314,False,,False,,,,,33
2531.529,2.4390023330001895,-0.9541015625,0.270263671875,-0.017333984375,0.916030534351145,-0.030534351145038167,-0.15267175572519084,38662,5,2,-0.3190850271621106,7537.90331714137,0.002628,False,,False,,,,,33
2531.529,2.441003233000174,-0.9541015625,0.270263671875,-0.017333984375,0.916030534351145,-0.030534351145038167,-0.15267175572519084,38662,5,2,-0.3190850271621106,7537.90331714137,0.002628,False,,False,,,,,33
2531.529,2.443004485000074,-0.9541015625,0.270263671875,-0.017333984375,0.916030534351145,-0.030534351145038167,-0.15267175572519084,38662,5,2,-0.3190850271621106,7537.90331714137,0.002628,False,,False,,,,,33
2531.534,2.445006014000228,-0.9580078125,0.26708984375,-0.018310546875,0.9770992366412213,-0.0916030534351145,-0.366412213740458,38660,-11,1,-0.3240288748183606,8625.77467857453,0.001314,False,,False,,,,,33
2531.534,2.4470086549999905,-0.9580078125,0.26708984375,-0.018310546875,0.9770992366412213,-0.0916030534351145,-0.366412213740458,38660,-11,1,-0.3240288748183606,8625.77467857453,0.001314,False,,False,,,,,33
2531.539,2.4490101840001444,-0.95458984375,0.266357421875,-0.015869140625,0.8854961832061068,-0.3053435114503817,-0.3053435114503817,38661,-4,3,-0.3215569509902356,9689.378402835866,0.003942,False,,False,,,,,33
2531.539,2.4510112140001183,-0.95458984375,0.266357421875,-0.015869140625,0.8854961832061068,-0.3053435114503817,-0.3053435114503817,38661,-4,3,-0.3215569509902356,9689.378402835866,0.003942,False,,False,,,,,33
2531.539,2.4530128910000712,-0.95458984375,0.266357421875,-0.015869140625,0.8854961832061068,-0.3053435114503817,-0.3053435114503817,38661,-4,3,-0.3215569509902356,9689.378402835866,0.003942,False,,False,,,,,33
2531.544,2.4550144210002145,-0.9541015625,0.26513671875,-0.01806640625,0.8549618320610687,-0.21374045801526717,-0.24427480916030533,38663,7,1,-0.3166131033339856,10717.2665232753,0.001314,False,,False,,,,,32
2531.544,2.457016172999829,-0.9541015625,0.26513671875,-0.01806640625,0.8549618320610687,-0.21374045801526717,-0.24427480916030533,38663,7,1,-0.3166131033339856,10717.2665232753,0.001314,False,,False,,,,,32
2531.549,2.4590173689998664,-0.950439453125,0.264404296875,-0.01708984375,0.9770992366412213,-0.24427480916030533,-0.42748091603053434,38662,1,2,-0.3190850271621106,11700.367042925318,0.002628,False,,False,,,,,32
2531.549,2.4610183610002423,-0.950439453125,0.264404296875,-0.01708984375,0.9770992366412213,-0.24427480916030533,-0.42748091603053434,38662,1,2,-0.3190850271621106,11700.367042925318,0.002628,False,,False,,,,,32
2531.549,2.4630195390000154,-0.950439453125,0.264404296875,-0.01708984375,0.9770992366412213,-0.24427480916030533,-0.42748091603053434,38662,1,2,-0.3190850271621106,11700.367042925318,0.002628,False,,False,,,,,32
2531.554,2.4650213089998942,-0.953369140625,0.264892578125,-0.019287109375,0.8854961832061068,-0.24427480916030533,-0.2748091603053435,38662,2,0,-0.3190850271621106,12631.723135050337,0.0,False,,False,,,,,32
2531.554,2.4670235050002702,-0.953369140625,0.264892578125,-0.019287109375,0.8854961832061068,-0.24427480916030533,-0.2748091603053435,38662,2,0,-0.3190850271621106,12631.723135050337,0.0,False,,False,,,,,32
2531.559,2.469025072000022,-0.953857421875,0.263671875,-0.01611328125,0.8244274809160305,-0.2748091603053435,-0.33587786259541985,38662,6,2,-0.3190850271621106,13506.265650815534,0.002628,False,,False,,,,,32
2531.559,2.4710261569998693,-0.953857421875,0.263671875,-0.01611328125,0.8244274809160305,-0.2748091603053435,-0.33587786259541985,38662,6,2,-0.3190850271621106,13506.265650815534,0.002628,False,,False,,,,,32
2531.559,2.473027798000203,-0.953857421875,0.263671875,-0.01611328125,0.8244274809160305,-0.2748091603053435,-0.33587786259541985,38662,6,2,-0.3190850271621106,13506.265650815534,0.002628,False,,False,,,,,32
2531.564,2.475029346000156,-0.9580078125,0.264404296875,-0.021240234375,0.8244274809160305,-0.24427480916030533,-0.3969465648854962,38662,1,3,-0.3190850271621106,14320.577415567077,0.003942,False,,False,,,,,33
2531.564,2.4770305790002567,-0.9580078125,0.264404296875,-0.021240234375,0.8244274809160305,-0.24427480916030533,-0.3969465648854962,38662,1,3,-0.3190850271621106,14320.577415567077,0.003942,False,,False,,,,,33
2531.569,2.4790318860000298,-0.953125,0.262451171875,-0.021240234375,0.7022900763358778,-0.183206106870229,-0.4580152671755725,38661,1,2,-0.3215569509902356,15072.66659876761,0.002628,False,,False,,,,,33
2531.569,2.4810326380002152,-0.953125,0.262451171875,-0.021240234375,0.7022900763358778,-0.183206106870229,-0.4580152671755725,38661,1,2,-0.3215569509902356,15072.66659876761,0.002628,False,,False,,,,,33
2531.569,2.4830342420000306,-0.953125,0.262451171875,-0.021240234375,0.7022900763358778,-0.183206106870229,-0.4580152671755725,38661,1,2,-0.3215569509902356,15072.66659876761,0.002628,False,,False,,,,,33
2531.574,2.485035567000068,-0.957763671875,0.26220703125,-0.019287109375,0.732824427480916,-0.183206106870229,-0.12213740458015267,38662,7,0,-0.3190850271621106,15761.768868424038,0.0,False,,False,,,,,33
2531.574,2.4870375599998624,-0.957763671875,0.26220703125,-0.019287109375,0.732824427480916,-0.183206106870229,-0.12213740458015267,38662,7,0,-0.3190850271621106,15761.768868424038,0.0,False,,False,,,,,33
2531.579,2.48903910800027,-0.955322265625,0.263671875,-0.021240234375,0.5801526717557252,-0.15267175572519084,-0.3969465648854962,38662,6,2,-0.3190850271621106,16388.160394986473,0.002628,False,,False,,,,,33
2531.579,2.4910406190001595,-0.955322265625,0.263671875,-0.021240234375,0.5801526717557252,-0.15267175572519084,-0.3969465648854962,38662,6,2,-0.3190850271621106,16388.160394986473,0.002628,False,,False,,,,,33
2531.579,2.493042277999848,-0.955322265625,0.263671875,-0.021240234375,0.5801526717557252,-0.15267175572519084,-0.3969465648854962,38662,6,2,-0.3190850271621106,16388.160394986473,0.002628,False,,False,,,,,33
2531.584,2.4950434930001393,-0.958740234375,0.262939453125,-0.019775390625,0.2748091603053435,0.12213740458015267,-0.366412213740458,38661,-7,1,-0.3215569509902356,16952.9754851447,0.001314,False,,False,,,,,33
2531.584,2.497045484999944,-0.958740234375,0.262939453125,-0.019775390625,0.2748091603053435,0.12213740458015267,-0.366412213740458,38661,-7,1,-0.3215569509902356,16952.9754851447,0.001314,False,,False,,,,,33
2531.589,2.499046643999918,-0.956298828125,0.260986328125,-0.020263671875,0.2748091603053435,0.24427480916030533,-0.24427480916030533,38662,0,3,-0.3190850271621106,17458.05580061222,0.003942,False,,False,,,,,33
2531.589,2.501047896000273,-0.956298828125,0.260986328125,-0.020263671875,0.2748091603053435,0.24427480916030533,-0.24427480916030533,38662,0,3,-0.3190850271621106,17458.05580061222,0.003942,False,,False,,,,,33
2531.589,2.503049370000099,-0.956298828125,0.260986328125,-0.020263671875,0.2748091603053435,0.24427480916030533,-0.24427480916030533,38662,0,3,-0.3190850271621106,17458.05580061222,0.003942,False,,False,,,,,33
2531.594,2.5050566959998832,-0.959228515625,0.26123046875,-0.021484375,0.12213740458015267,0.24427480916030533,-0.21374045801526717,38662,1,2,-0.3190850271621106,17905.813879600457,0.002628,False,,False,,,,,33
2531.594,2.5070552440001848,-0.959228515625,0.26123046875,-0.021484375,0.12213740458015267,0.24427480916030533,-0.21374045801526717,38662,1,2,-0.3190850271621106,17905.813879600457,0.002628,False,,False,,,,,33
2531.599,2.509056087999852,-0.959716796875,0.26513671875,-0.01806640625,0.183206106870229,0.21374045801526717,-0.0916030534351145,38661,-5,2,-0.3215569509902356,18299.09449485747,0.002628,False,,False,,,,,33
2531.599,2.511057099000027,-0.959716796875,0.26513671875,-0.01806640625,0.183206106870229,0.21374045801526717,-0.0916030534351145,38661,-5,2,-0.3215569509902356,18299.09449485747,0.002628,False,,False,,,,,33
2531.599,2.5130586840000433,-0.959716796875,0.26513671875,-0.01806640625,0.183206106870229,0.21374045801526717,-0.0916030534351145,38661,-5,2,-0.3215569509902356,18299.09449485747,0.002628,False,,False,,,,,33
2531.6040000000003,2.515065195000261,-0.96044921875,0.262939453125,-0.0185546875,-0.21374045801526717,0.2748091603053435,-0.15267175572519084,38662,0,5,-0.3190850271621106,18641.068438029743,0.0065699999999999995,False,,False,,,,,33
2531.6040000000003,2.5170643910000763,-0.96044921875,0.262939453125,-0.0185546875,-0.21374045801526717,0.2748091603053435,-0.15267175572519084,38662,0,5,-0.3190850271621106,18641.068438029743,0.0065699999999999995,False,,False,,,,,33
2531.609,2.519063699000071,-0.957763671875,0.2666015625,-0.01708984375,-0.21374045801526717,0.4580152671755725,-0.33587786259541985,38661,-8,0,-0.3215569509902356,18935.137084421847,0.0,False,,False,,,,,33
2531.609,2.5210646169998654,-0.957763671875,0.2666015625,-0.01708984375,-0.21374045801526717,0.4580152671755725,-0.33587786259541985,38661,-8,0,-0.3215569509902356,18935.137084421847,0.0,False,,False,,,,,33
2531.609,2.5230658320001567,-0.957763671875,0.2666015625,-0.01708984375,-0.21374045801526717,0.4580152671755725,-0.33587786259541985,38661,-8,0,-0.3215569509902356,18935.137084421847,0.0,False,,False,,,,,33
2531.614,2.5250671580001836,-0.95947265625,0.2646484375,-0.017822265625,-0.3969465648854962,0.5190839694656488,-0.3053435114503817,38660,-8,-2,-0.3240288748183606,19184.83662242657,-0.002628,False,,False,,,,,33
2531.614,2.5270694280002317,-0.95947265625,0.2646484375,-0.017822265625,-0.3969465648854962,0.5190839694656488,-0.3053435114503817,38660,-8,-2,-0.3240288748183606,19184.83662242657,-0.002628,False,,False,,,,,33
2531.619,2.5290706430000682,-0.959228515625,0.262939453125,-0.01708984375,-0.48854961832061067,0.549618320610687,-0.4580152671755725,38662,-4,0,-0.3190850271621106,19393.77561870033,0.0,False,,False,,,,,33
2531.619,2.531072412999947,-0.959228515625,0.262939453125,-0.01708984375,-0.48854961832061067,0.549618320610687,-0.4580152671755725,38662,-4,0,-0.3190850271621106,19393.77561870033,0.0,False,,False,,,,,33
2531.619,2.5330734419999317,-0.959228515625,0.262939453125,-0.01708984375,-0.48854961832061067,0.549618320610687,-0.4580152671755725,38662,-4,0,-0.3190850271621106,19393.77561870033,0.0,False,,False,,,,,33
2531.6240000000003,2.535074730999895,-0.9580078125,0.26708984375,-0.018310546875,-0.42748091603053434,0.4580152671755725,-0.3969465648854962,38661,-1,1,-0.3215569509902356,19565.569166845642,0.001314,False,,False,,,,,32
2531.6240000000003,2.5370772239998587,-0.9580078125,0.26708984375,-0.018310546875,-0.42748091603053434,0.4580152671755725,-0.3969465648854962,38661,-1,1,-0.3215569509902356,19565.569166845642,0.001314,False,,False,,,,,32
2531.629,2.539078346000224,-0.958251953125,0.26708984375,-0.017333984375,-0.48854961832061067,0.366412213740458,-0.366412213740458,38661,-6,1,-0.3215569509902356,19703.77292031731,0.001314,False,,False,,,,,32
2531.629,2.5410795230000076,-0.958251953125,0.26708984375,-0.017333984375,-0.48854961832061067,0.366412213740458,-0.366412213740458,38661,-6,1,-0.3215569509902356,19703.77292031731,0.001314,False,,False,,,,,32
2531.629,2.543080757000098,-0.958251953125,0.26708984375,-0.017333984375,-0.48854961832061067,0.366412213740458,-0.366412213740458,38661,-6,1,-0.3215569509902356,19703.77292031731,0.001314,False,,False,,,,,32
2531.634,2.5450819530001354,-0.95556640625,0.271240234375,-0.017578125,-0.48854961832061067,0.3053435114503817,-0.3969465648854962,38662,0,3,-0.3190850271621106,19811.853794108098,0.003942,False,,False,,,,,32
2531.634,2.547083704000215,-0.95556640625,0.271240234375,-0.017578125,-0.48854961832061067,0.3053435114503817,-0.3969465648854962,38662,0,3,-0.3190850271621106,19811.853794108098,0.003942,False,,False,,,,,32
2531.639,2.5490848819999883,-0.958740234375,0.27197265625,-0.0185546875,-0.549618320610687,0.4580152671755725,-0.33587786259541985,38662,6,1,-0.3190850271621106,19893.15418873817,0.001314,False,,False,,,,,32
2531.639,2.551086060000216,-0.958740234375,0.27197265625,-0.0185546875,-0.549618320610687,0.4580152671755725,-0.33587786259541985,38662,6,1,-0.3190850271621106,19893.15418873817,0.001314,False,,False,,,,,32
2531.639,2.5530874780001795,-0.958740234375,0.27197265625,-0.0185546875,-0.549618320610687,0.4580152671755725,-0.33587786259541985,38662,6,1,-0.3190850271621106,19893.15418873817,0.001314,False,,False,,,,,32
2531.6440000000002,2.5550890449999315,-0.955810546875,0.27001953125,-0.020263671875,-0.5801526717557252,0.42748091603053434,-0.6106870229007634,38661,0,0,-0.3215569509902356,19950.85310004285,0.0,False,,False,,,,,33
2531.6440000000002,2.5570917589998317,-0.955810546875,0.27001953125,-0.020263671875,-0.5801526717557252,0.42748091603053434,-0.6106870229007634,38661,0,0,-0.3215569509902356,19950.85310004285,0.0,False,,False,,,,,33
2531.649,2.559092511000017,-0.957763671875,0.271240234375,-0.02099609375,-0.48854961832061067,0.33587786259541985,-0.5190839694656488,38662,0,1,-0.3190850271621106,19987.955623745216,0.001314,False,,False,,,,,33
2531.649,2.561093669999991,-0.957763671875,0.271240234375,-0.02099609375,-0.48854961832061067,0.33587786259541985,-0.5190839694656488,38662,0,1,-0.3190850271621106,19987.955623745216,0.001314,False,,False,,,,,33
2531.649,2.5630955699998594,-0.957763671875,0.271240234375,-0.02099609375,-0.48854961832061067,0.33587786259541985,-0.5190839694656488,38662,0,1,-0.3190850271621106,19987.955623745216,0.001314,False,,False,,,,,33
2531.654,2.565097154999876,-0.9541015625,0.267822265625,-0.018310546875,-0.5190839694656488,0.42748091603053434,-0.6717557251908397,38661,-1,2,-0.3215569509902356,20007.279526078262,0.002628,False,,False,,,,,32
2531.654,2.567099481000241,-0.9541015625,0.267822265625,-0.018310546875,-0.5190839694656488,0.42748091603053434,-0.6717557251908397,38661,-1,2,-0.3215569509902356,20007.279526078262,0.002628,False,,False,,,,,32
2531.659,2.5691009180000037,-0.956298828125,0.2705078125,-0.021484375,-0.5801526717557252,0.33587786259541985,-0.549618320610687,38662,-1,3,-0.3190850271621106,20011.439552730455,0.003942,False,,False,,,,,32
2531.659,2.5711018729998614,-0.956298828125,0.2705078125,-0.021484375,-0.5801526717557252,0.33587786259541985,-0.549618320610687,38662,-1,3,-0.3190850271621106,20011.439552730455,0.003942,False,,False,,,,,32
2531.659,2.573125791000166,-0.956298828125,0.2705078125,-0.021484375,-0.5801526717557252,0.33587786259541985,-0.549618320610687,38662,-1,3,-0.3190850271621106,20011.439552730455,0.003942,False,,False,,,,,32
2531.664,2.575127190999865,-0.953857421875,0.27001953125,-0.02099609375,-0.5801526717557252,0.549618320610687,-0.549618320610687,38661,-9,1,-0.3215569509902356,20002.844395727887,0.001314,False,,False,,,,,33
2531.664,2.5771284620000188,-0.953857421875,0.27001953125,-0.02099609375,-0.5801526717557252,0.549618320610687,-0.549618320610687,38661,-9,1,-0.3215569509902356,20002.844395727887,0.001314,False,,False,,,,,33
2531.669,2.5791294360001302,-0.95556640625,0.2734375,-0.021484375,-0.6412213740458015,0.15267175572519084,-0.6717557251908397,38662,4,2,-0.3190850271621106,19983.695348702408,0.002628,False,,False,,,,,33
2531.669,2.5811309470000197,-0.95556640625,0.2734375,-0.021484375,-0.6412213740458015,0.15267175572519084,-0.6717557251908397,38662,4,2,-0.3190850271621106,19983.695348702408,0.002628,False,,False,,,,,33
2531.674,2.5831330129999515,-0.953857421875,0.2685546875,-0.021728515625,-0.5190839694656488,0.3053435114503817,-0.8244274809160305,38662,0,2,-0.3190850271621106,19955.989976109413,0.002628,False,,False,,,,,33
2531.674,2.5851334869998936,-0.953857421875,0.2685546875,-0.021728515625,-0.5190839694656488,0.3053435114503817,-0.8244274809160305,38662,0,2,-0.3190850271621106,19955.989976109413,0.002628,False,,False,,,,,33
2531.674,2.5871357940000053,-0.953857421875,0.2685546875,-0.021728515625,-0.5190839694656488,0.3053435114503817,-0.8244274809160305,38662,0,2,-0.3190850271621106,19955.989976109413,0.002628,False,,False,,,,,33
2531.679,2.5891390460001276,-0.954833984375,0.26904296875,-0.0205078125,-0.6106870229007634,0.2748091603053435,-0.8244274809160305,38661,0,1,-0.3215569509902356,19921.52097438178,0.001314,False,,False,,,,,33
2531.679,2.5911506130000816,-0.954833984375,0.26904296875,-0.0205078125,-0.6106870229007634,0.2748091603053435,-0.8244274809160305,38661,0,1,-0.3215569509902356,19921.52097438178,0.001314,False,,False,,,,,33
2531.684,2.593150623999918,-0.954833984375,0.266357421875,-0.02099609375,-0.6412213740458015,0.24427480916030533,-0.732824427480916,38662,4,1,-0.3190850271621106,19881.88713892182,0.001314,False,,False,,,,,32
2531.684,2.59514989399986,-0.954833984375,0.266357421875,-0.02099609375,-0.6412213740458015,0.24427480916030533,-0.732824427480916,38662,4,1,-0.3190850271621106,19881.88713892182,0.001314,False,,False,,,,,32
2531.684,2.597151146000215,-0.954833984375,0.266357421875,-0.02099609375,-0.6412213740458015,0.24427480916030533,-0.732824427480916,38662,4,1,-0.3190850271621106,19881.88713892182,0.001314,False,,False,,,,,32
2531.689,2.599153397000009,-0.95703125,0.26611328125,-0.02001953125,-0.5801526717557252,0.24427480916030533,-0.8244274809160305,38663,5,3,-0.3166131033339856,19838.508935465186,0.003942,False,,False,,,,,32
2531.689,2.6011796120001236,-0.95703125,0.26611328125,-0.02001953125,-0.5801526717557252,0.24427480916030533,-0.8244274809160305,38663,5,3,-0.3166131033339856,19838.508935465186,0.003942,False,,False,,,,,32
2531.694,2.6031824189999497,-0.955810546875,0.267578125,-0.02099609375,-0.6412213740458015,0.2748091603053435,-0.732824427480916,38662,5,2,-0.3190850271621106,19792.62442398295,0.002628,False,,False,,,,,32
2531.694,2.605181466999966,-0.955810546875,0.267578125,-0.02099609375,-0.6412213740458015,0.2748091603053435,-0.732824427480916,38662,5,2,-0.3190850271621106,19792.62442398295,0.002628,False,,False,,,,,32
2531.694,2.607182904000183,-0.955810546875,0.267578125,-0.02099609375,-0.6412213740458015,0.2748091603053435,-0.732824427480916,38662,5,2,-0.3190850271621106,19792.62442398295,0.002628,False,,False,,,,,32
2531.699,2.6091841000002205,-0.95166015625,0.26953125,-0.02197265625,-0.6717557251908397,0.24427480916030533,-0.8244274809160305,38661,3,0,-0.3215569509902356,19745.299231734523,0.0,False,,False,,,,,32
2531.699,2.6111850560000676,-0.95166015625,0.26953125,-0.02197265625,-0.6717557251908397,0.24427480916030533,-0.8244274809160305,38661,3,0,-0.3215569509902356,19745.299231734523,0.0,False,,False,,,,,32
2531.704,2.6131867520002743,-0.954345703125,0.266845703125,-0.018310546875,-0.6717557251908397,0.183206106870229,-0.8244274809160305,38662,-3,4,-0.3190850271621106,19697.453515072837,0.005256,False,,False,,,,,32
2531.704,2.615187558999878,-0.954345703125,0.266845703125,-0.018310546875,-0.6717557251908397,0.183206106870229,-0.8244274809160305,38662,-3,4,-0.3190850271621106,19697.453515072837,0.005256,False,,False,,,,,32
2531.704,2.6171895140000743,-0.954345703125,0.266845703125,-0.018310546875,-0.6717557251908397,0.183206106870229,-0.8244274809160305,38662,-3,4,-0.3190850271621106,19697.453515072837,0.005256,False,,False,,,,,32
2531.709,2.6191904510001223,-0.9560546875,0.265869140625,-0.017822265625,-0.7022900763358778,0.183206106870229,-0.6106870229007634,38661,-2,5,-0.3215569509902356,19649.868733728388,0.0065699999999999995,False,,False,,,,,32
2531.709,2.6211911109999164,-0.9560546875,0.265869140625,-0.017822265625,-0.7022900763358778,0.183206106870229,-0.6106870229007634,38661,-2,5,-0.3215569509902356,19649.868733728388,0.0065699999999999995,False,,False,,,,,32
2531.714,2.6231940659999964,-0.959228515625,0.265380859375,-0.018798828125,-0.7022900763358778,0.2748091603053435,-0.9465648854961831,38662,8,2,-0.3190850271621106,19603.19175034196,0.002628,False,,False,,,,,33
2531.714,2.6251938179998433,-0.959228515625,0.265380859375,-0.018798828125,-0.7022900763358778,0.2748091603053435,-0.9465648854961831,38662,8,2,-0.3190850271621106,19603.19175034196,0.002628,False,,False,,,,,33
2531.714,2.6271957180001664,-0.959228515625,0.265380859375,-0.018798828125,-0.7022900763358778,0.2748091603053435,-0.9465648854961831,38662,8,2,-0.3190850271621106,19603.19175034196,0.002628,False,,False,,,,,33
2531.719,2.629197784000098,-0.953857421875,0.270751953125,-0.019287109375,-0.7633587786259541,0.21374045801526717,-0.8244274809160305,38663,-2,2,-0.3166131033339856,19557.95453642267,0.002628,False,,False,,,,,33
2531.719,2.63119849900022,-0.953857421875,0.270751953125,-0.019287109375,-0.7633587786259541,0.21374045801526717,-0.8244274809160305,38663,-2,2,-0.3166131033339856,19557.95453642267,0.002628,False,,False,,,,,33
2531.724,2.6332004730002154,-0.958984375,0.265380859375,-0.0205078125,-0.916030534351145,0.2748091603053435,-0.7938931297709924,38662,-1,1,-0.3190850271621106,19514.578010202735,0.001314,False,,False,,,,,33
2531.724,2.635201891000179,-0.958984375,0.265380859375,-0.0205078125,-0.916030534351145,0.2748091603053435,-0.7938931297709924,38662,-1,1,-0.3190850271621106,19514.578010202735,0.001314,False,,False,,,,,33
2531.724,2.6372041240001636,-0.958984375,0.265380859375,-0.0205078125,-0.916030534351145,0.2748091603053435,-0.7938931297709924,38662,-1,1,-0.3190850271621106,19514.578010202735,0.001314,False,,False,,,,,33
2531.7290000000003,2.639204969000275,-0.958251953125,0.265869140625,-0.021728515625,-0.916030534351145,0.2748091603053435,-0.7633587786259541,38663,2,1,-0.3166131033339856,19473.384020427864,0.001314,False,,False,,,,,33
2531.7290000000003,2.6412060170000586,-0.958251953125,0.265869140625,-0.021728515625,-0.916030534351145,0.2748091603053435,-0.7633587786259541,38663,2,1,-0.3166131033339856,19473.384020427864,0.001314,False,,False,,,,,33
2531.734,2.643208065000181,-0.958251953125,0.26611328125,-0.020751953125,-1.1603053435114503,0.24427480916030533,-0.9770992366412213,38661,-1,1,-0.3215569509902356,19434.612185665315,0.001314,False,,False,,,,,33
2531.734,2.6452086499998586,-0.958251953125,0.26611328125,-0.020751953125,-1.1603053435114503,0.24427480916030533,-0.9770992366412213,38661,-1,1,-0.3215569509902356,19434.612185665315,0.001314,False,,False,,,,,33
2531.734,2.647210605000055,-0.958251953125,0.26611328125,-0.020751953125,-1.1603053435114503,0.24427480916030533,-0.9770992366412213,38661,-1,1,-0.3215569509902356,19434.612185665315,0.001314,False,,False,,,,,33
2531.739,2.649211913000272,-0.9609375,0.2646484375,-0.020751953125,-1.2213740458015268,0.2748091603053435,-0.916030534351145,38662,2,1,-0.3190850271621106,19398.42802108677,0.001314,False,,False,,,,,33
2531.739,2.651213127000119,-0.9609375,0.2646484375,-0.020751953125,-1.2213740458015268,0.2748091603053435,-0.916030534351145,38662,2,1,-0.3190850271621106,19398.42802108677,0.001314,False,,False,,,,,33
2531.744,2.6532145090000085,-0.955322265625,0.271484375,-0.020751953125,-1.1908396946564885,0.3053435114503817,-0.916030534351145,38662,1,1,-0.3190850271621106,19364.937977587742,0.001314,False,,False,,,,,33
2531.744,2.6552273339998465,-0.955322265625,0.271484375,-0.020751953125,-1.1908396946564885,0.3053435114503817,-0.916030534351145,38662,1,1,-0.3190850271621106,19364.937977587742,0.001314,False,,False,,,,,33
2531.744,2.6572168269999565,-0.955322265625,0.271484375,-0.020751953125,-1.1908396946564885,0.3053435114503817,-0.916030534351145,38662,1,1,-0.3190850271621106,19364.937977587742,0.001314,False,,False,,,,,33
2531.7490000000003,2.659218504999899,-0.959716796875,0.2685546875,-0.0205078125,-1.3129770992366412,0.3969465648854962,-0.7633587786259541,38661,1,3,-0.3215569509902356,19334.18856390234,0.003942,False,,False,,,,,33
2531.7490000000003,2.6612195339998834,-0.959716796875,0.2685546875,-0.0205078125,-1.3129770992366412,0.3969465648854962,-0.7633587786259541,38661,1,3,-0.3215569509902356,19334.18856390234,0.003942,False,,False,,,,,33
2531.754,2.663221008000164,-0.9599609375,0.26904296875,-0.020263671875,-1.3129770992366412,0.42748091603053434,-0.7633587786259541,38661,-6,3,-0.3215569509902356,19306.175432540324,0.003942,False,,False,,,,,33
2531.754,2.665222260000064,-0.9599609375,0.26904296875,-0.020263671875,-1.3129770992366412,0.42748091603053434,-0.7633587786259541,38661,-6,3,-0.3215569509902356,19306.175432540324,0.003942,False,,False,,,,,33
2531.754,2.6672263260002183,-0.9599609375,0.26904296875,-0.020263671875,-1.3129770992366412,0.42748091603053434,-0.7633587786259541,38661,-6,3,-0.3215569509902356,19306.175432540324,0.003942,False,,False,,,,,33
2531.759,2.669229188999907,-0.962890625,0.2685546875,-0.0224609375,-1.3435114503816794,0.5801526717557252,-0.7938931297709924,38663,10,2,-0.3166131033339856,19280.86425661104,0.002628,False,,False,,,,,33
2531.759,2.671226996999849,-0.962890625,0.2685546875,-0.0224609375,-1.3435114503816794,0.5801526717557252,-0.7938931297709924,38663,10,2,-0.3166131033339856,19280.86425661104,0.002628,False,,False,,,,,33
2531.764,2.6732294150001508,-0.965087890625,0.27001953125,-0.022216796875,-1.465648854961832,0.6717557251908397,-0.7938931297709924,38661,0,2,-0.3215569509902356,19258.183574762334,0.002628,False,,False,,,,,32
2531.764,2.6752329070000087,-0.965087890625,0.27001953125,-0.022216796875,-1.465648854961832,0.6717557251908397,-0.7938931297709924,38661,0,2,-0.3215569509902356,19258.183574762334,0.002628,False,,False,,,,,32
2531.764,2.6772321220000777,-0.965087890625,0.27001953125,-0.022216796875,-1.465648854961832,0.6717557251908397,-0.7938931297709924,38661,0,2,-0.3215569509902356,19258.183574762334,0.002628,False,,False,,,,,32
2531.7690000000002,2.6792361520001577,-0.96337890625,0.271728515625,-0.020263671875,-1.5267175572519083,0.549618320610687,-0.7022900763358778,38661,-1,7,-0.3215569509902356,19238.026501093434,0.009198,False,,False,,,,,32
2531.7690000000002,2.6812343110000256,-0.96337890625,0.271728515625,-0.020263671875,-1.5267175572519083,0.549618320610687,-0.7022900763358778,38661,-1,7,-0.3215569509902356,19238.026501093434,0.009198,False,,False,,,,,32
2531.774,2.6832363769999574,-0.959716796875,0.272705078125,-0.02099609375,-1.648854961832061,0.8854961832061068,-0.5190839694656488,38661,0,3,-0.3215569509902356,19220.274155898354,0.003942,False,,False,,,,,32
2531.774,2.6852367030001005,-0.959716796875,0.272705078125,-0.02099609375,-1.648854961832061,0.8854961832061068,-0.5190839694656488,38661,0,3,-0.3215569509902356,19220.274155898354,0.003942,False,,False,,,,,32
2531.774,2.687238121000064,-0.959716796875,0.272705078125,-0.02099609375,-1.648854961832061,0.8854961832061068,-0.5190839694656488,38661,0,3,-0.3215569509902356,19220.274155898354,0.003942,False,,False,,,,,32
2531.779,2.689239298999837,-0.96337890625,0.275634765625,-0.021728515625,-1.648854961832061,0.7633587786259541,-0.549618320610687,38662,-3,3,-0.3190850271621106,19204.797550138373,0.003942,False,,False,,,,,32
2531.779,2.6912402180000754,-0.96337890625,0.275634765625,-0.021728515625,-1.648854961832061,0.7633587786259541,-0.549618320610687,38662,-3,3,-0.3190850271621106,19204.797550138373,0.003942,False,,False,,,,,32
2531.784,2.693244173000039,-0.960205078125,0.27197265625,-0.017333984375,-1.4961832061068703,0.7633587786259541,-0.6412213740458015,38662,0,1,-0.3190850271621106,19191.452147522334,0.001314,False,,False,,,,,32
2531.784,2.695243591000235,-0.960205078125,0.27197265625,-0.017333984375,-1.4961832061068703,0.7633587786259541,-0.6412213740458015,38662,0,1,-0.3190850271621106,19191.452147522334,0.001314,False,,False,,,,,32
2531.784,2.69724532500004,-0.960205078125,0.27197265625,-0.017333984375,-1.4961832061068703,0.7633587786259541,-0.6412213740458015,38662,0,1,-0.3190850271621106,19191.452147522334,0.001314,False,,False,,,,,32
2531.789,2.6992677799999,-0.960205078125,0.270751953125,-0.022705078125,-1.8015267175572518,0.6412213740458015,-0.5190839694656488,38663,5,2,-0.3166131033339856,19180.084280259038,0.002628,False,,False,,,,,32
2531.789,2.7012479019999773,-0.960205078125,0.270751953125,-0.022705078125,-1.8015267175572518,0.6412213740458015,-0.5190839694656488,38663,5,2,-0.3166131033339856,19180.084280259038,0.002628,False,,False,,,,,32
2531.794,2.70324969100011,-0.95654296875,0.2724609375,-0.01953125,-1.6793893129770991,0.7022900763358778,-0.3053435114503817,38662,0,1,-0.3190850271621106,19170.53486198884,0.001314,False,,False,,,,,32
2531.794,2.705251091000264,-0.95654296875,0.2724609375,-0.01953125,-1.6793893129770991,0.7022900763358778,-0.3053435114503817,38662,0,1,-0.3190850271621106,19170.53486198884,0.001314,False,,False,,,,,32
2531.794,2.7072529350002696,-0.95654296875,0.2724609375,-0.01953125,-1.6793893129770991,0.7022900763358778,-0.3053435114503817,38662,0,1,-0.3190850271621106,19170.53486198884,0.001314,False,,False,,,,,32
2531.799,2.709254279000106,-0.957763671875,0.274169921875,-0.0205078125,-1.8931297709923662,0.7022900763358778,-0.24427480916030533,38661,-5,2,-0.3215569509902356,19162.640784149742,0.002628,False,,False,,,,,32
2531.799,2.7112549570001647,-0.957763671875,0.274169921875,-0.0205078125,-1.8931297709923662,0.7022900763358778,-0.24427480916030533,38661,-5,2,-0.3215569509902356,19162.640784149742,0.002628,False,,False,,,,,32
2531.804,2.713257098000213,-0.95703125,0.273681640625,-0.018798828125,-1.7709923664122136,0.5801526717557252,-0.183206106870229,38661,0,-1,-0.3215569509902356,19156.245095778813,-0.001314,False,,False,,,,,32
2531.804,2.715257775000282,-0.95703125,0.273681640625,-0.018798828125,-1.7709923664122136,0.5801526717557252,-0.183206106870229,38661,0,-1,-0.3215569509902356,19156.245095778813,-0.001314,False,,False,,,,,32
2531.804,2.7172595460001503,-0.95703125,0.273681640625,-0.018798828125,-1.7709923664122136,0.5801526717557252,-0.183206106870229,38661,0,-1,-0.3215569509902356,19156.245095778813,-0.001314,False,,False,,,,,32
2531.809,2.7192614270002196,-0.9560546875,0.270263671875,-0.022705078125,-1.83206106870229,0.6412213740458015,-0.3053435114503817,38662,3,0,-0.3190850271621106,19151.20185566864,0.0,False,,False,,,,,32
2531.809,2.7212623079999503,-0.9560546875,0.270263671875,-0.022705078125,-1.83206106870229,0.6412213740458015,-0.3053435114503817,38662,3,0,-0.3190850271621106,19151.20185566864,0.0,False,,False,,,,,32
2531.814,2.7232636899998397,-0.95654296875,0.273681640625,-0.02099609375,-1.7709923664122136,0.549618320610687,-0.183206106870229,38662,9,4,-0.3190850271621106,19147.367501479224,0.005256,False,,False,,,,,33
2531.814,2.725264792999951,-0.95654296875,0.273681640625,-0.02099609375,-1.7709923664122136,0.549618320610687,-0.183206106870229,38662,9,4,-0.3190850271621106,19147.367501479224,0.005256,False,,False,,,,,33
2531.814,2.7272665450000204,-0.95654296875,0.273681640625,-0.02099609375,-1.7709923664122136,0.549618320610687,-0.183206106870229,38662,9,4,-0.3190850271621106,19147.367501479224,0.005256,False,,False,,,,,33
2531.819,2.7292679450001742,-0.953369140625,0.27001953125,-0.023681640625,-1.7404580152671756,0.7633587786259541,-0.12213740458015267,38661,-6,3,-0.3215569509902356,19144.59717063787,0.003942,False,,False,,,,,33
2531.819,2.731269085999884,-0.953369140625,0.27001953125,-0.023681640625,-1.7404580152671756,0.7633587786259541,-0.12213740458015267,38661,-6,3,-0.3215569509902356,19144.59717063787,0.003942,False,,False,,,,,33
2531.824,2.733272448000207,-0.9521484375,0.268798828125,-0.02294921875,-1.8015267175572518,0.732824427480916,0.030534351145038167,38662,0,2,-0.3190850271621106,19142.755963133535,0.002628,False,,False,,,,,32
2531.824,2.7352722370001175,-0.9521484375,0.268798828125,-0.02294921875,-1.8015267175572518,0.732824427480916,0.030534351145038167,38662,0,2,-0.3190850271621106,19142.755963133535,0.002628,False,,False,,,,,32
2531.824,2.7372741740000492,-0.9521484375,0.268798828125,-0.02294921875,-1.8015267175572518,0.732824427480916,0.030534351145038167,38662,0,2,-0.3190850271621106,19142.755963133535,0.002628,False,,False,,,,,32
2531.829,2.7392751299998963,-0.953125,0.2705078125,-0.0234375,-1.7404580152671756,0.6717557251908397,0.0,38661,-2,4,-0.3215569509902356,19141.72106420529,0.005256,False,,False,,,,,32
2531.829,2.7412762889998703,-0.953125,0.2705078125,-0.0234375,-1.7404580152671756,0.6717557251908397,0.0,38661,-2,4,-0.3215569509902356,19141.72106420529,0.005256,False,,False,,,,,32
2531.834,2.743277503000172,-0.952880859375,0.2685546875,-0.0234375,-1.7709923664122136,0.7938931297709924,-0.061068702290076333,38662,3,3,-0.3190850271621106,19141.37618432578,0.003942,False,,False,,,,,32
2531.834,2.745279069999924,-0.952880859375,0.2685546875,-0.0234375,-1.7709923664122136,0.7938931297709924,-0.061068702290076333,38662,3,3,-0.3190850271621106,19141.37618432578,0.003942,False,,False,,,,,32
2531.834,2.747282988000279,-0.952880859375,0.2685546875,-0.0234375,-1.7709923664122136,0.7938931297709924,-0.061068702290076333,38662,3,3,-0.3190850271621106,19141.37618432578,0.003942,False,,False,,,,,32
2531.839,2.7492868700001054,-0.956787109375,0.271484375,-0.026611328125,-1.8625954198473282,0.8244274809160305,0.030534351145038167,38661,-4,4,-0.3215569509902356,19141.613971919556,0.005256,False,,False,,,,,32
2531.839,2.7512843250001424,-0.956787109375,0.271484375,-0.026611328125,-1.8625954198473282,0.8244274809160305,0.030534351145038167,38661,-4,4,-0.3215569509902356,19141.613971919556,0.005256,False,,False,,,,,32
2531.844,2.753286262000074,-0.95751953125,0.269775390625,-0.02392578125,-1.8931297709923662,0.8854961832061068,0.0,38663,3,3,-0.3166131033339856,19142.337903764866,0.003942,False,,False,,,,,33
2531.844,2.7552870690001328,-0.95751953125,0.269775390625,-0.02392578125,-1.8931297709923662,0.8854961832061068,0.0,38663,3,3,-0.3166131033339856,19142.337903764866,0.003942,False,,False,,,,,33
2531.844,2.757288840000001,-0.95751953125,0.269775390625,-0.02392578125,-1.8931297709923662,0.8854961832061068,0.0,38663,3,3,-0.3166131033339856,19142.337903764866,0.003942,False,,False,,,,,33
2531.849,2.759293684000113,-0.957275390625,0.270751953125,-0.0263671875,-1.8931297709923662,1.0076335877862594,0.0916030534351145,38662,1,3,-0.3190850271621106,19143.46012975294,0.003942,False,,False,,,,,33
2531.849,2.7612919729999703,-0.957275390625,0.270751953125,-0.0263671875,-1.8931297709923662,1.0076335877862594,0.0916030534351145,38662,1,3,-0.3190850271621106,19143.46012975294,0.003942,False,,False,,,,,33
2531.8540000000003,2.7632931130001452,-0.9619140625,0.26904296875,-0.02685546875,-1.9541984732824427,1.0076335877862594,-0.12213740458015267,38661,0,0,-0.3215569509902356,19144.894171396172,0.0,False,,False,,,,,33
2531.8540000000003,2.7652935870000874,-0.9619140625,0.26904296875,-0.02685546875,-1.9541984732824427,1.0076335877862594,-0.12213740458015267,38661,0,0,-0.3215569509902356,19144.894171396172,0.0,False,,False,,,,,33
2531.8540000000003,2.767295190999903,-0.9619140625,0.26904296875,-0.02685546875,-1.9541984732824427,1.0076335877862594,-0.12213740458015267,38661,0,0,-0.3215569509902356,19144.894171396172,0.0,False,,False,,,,,33
2531.859,2.76929662800012,-0.9580078125,0.26708984375,-0.0244140625,-2.1068702290076335,1.129770992366412,0.0916030534351145,38662,-1,1,-0.3190850271621106,19146.566694318186,0.001314,False,,False,,,,,33
2531.859,2.7712974169999143,-0.9580078125,0.26708984375,-0.0244140625,-2.1068702290076335,1.129770992366412,0.0916030534351145,38662,-1,1,-0.3190850271621106,19146.566694318186,0.001314,False,,False,,,,,33
2531.864,2.7732987419999517,-0.960205078125,0.269287109375,-0.02734375,-2.259541984732824,1.0076335877862594,0.12213740458015267,38662,-4,2,-0.3190850271621106,19148.420011528382,0.002628,False,,False,,,,,33
2531.864,2.775300272000095,-0.960205078125,0.269287109375,-0.02734375,-2.259541984732824,1.0076335877862594,0.12213740458015267,38662,-4,2,-0.3190850271621106,19148.420011528382,0.002628,False,,False,,,,,33
2531.864,2.7773018759999104,-0.960205078125,0.269287109375,-0.02734375,-2.259541984732824,1.0076335877862594,0.12213740458015267,38662,-4,2,-0.3190850271621106,19148.420011528382,0.002628,False,,False,,,,,33
2531.869,2.7793029240001488,-0.958740234375,0.2666015625,-0.026611328125,-2.229007633587786,1.129770992366412,0.061068702290076333,38662,-1,1,-0.3190850271621106,19150.397837894256,0.001314,False,,False,,,,,33
2531.869,2.7813041750000593,-0.958740234375,0.2666015625,-0.026611328125,-2.229007633587786,1.129770992366412,0.061068702290076333,38662,-1,1,-0.3190850271621106,19150.397837894256,0.001314,False,,False,,,,,33
2531.8740000000003,2.783305797000139,-0.964111328125,0.26708984375,-0.023193359375,-2.351145038167939,1.0687022900763359,0.030534351145038167,38663,7,-1,-0.3166131033339856,19152.451248805595,-0.001314,False,,False,,,,,32
2531.8740000000003,2.7853067900000497,-0.964111328125,0.26708984375,-0.023193359375,-2.351145038167939,1.0687022900763359,0.030534351145038167,38663,7,-1,-0.3166131033339856,19152.451248805595,-0.001314,False,,False,,,,,32
2531.8740000000003,2.787308893000045,-0.964111328125,0.26708984375,-0.023193359375,-2.351145038167939,1.0687022900763359,0.030534351145038167,38663,7,-1,-0.3166131033339856,19152.451248805595,-0.001314,False,,False,,,,,32
2531.879,2.78931086700004,-0.964111328125,0.271240234375,-0.023193359375,-2.4732824427480917,1.0381679389312977,0.030534351145038167,38661,0,3,-0.3215569509902356,19154.536400012308,0.003942,False,,False,,,,,32
2531.879,2.7913123040002574,-0.964111328125,0.271240234375,-0.023193359375,-2.4732824427480917,1.0381679389312977,0.030534351145038167,38661,0,3,-0.3215569509902356,19154.536400012308,0.003942,False,,False,,,,,32
2531.884,2.793314019000263,-0.966552734375,0.2724609375,-0.021728515625,-2.6259541984732824,1.1603053435114503,0.2748091603053435,38662,-2,3,-0.3190850271621106,19156.61433559557,0.003942,False,,False,,,,,32
2531.884,2.795314845000121,-0.966552734375,0.2724609375,-0.021728515625,-2.6259541984732824,1.1603053435114503,0.2748091603053435,38662,-2,3,-0.3190850271621106,19156.61433559557,0.003942,False,,False,,,,,32
2531.884,2.7973164850000103,-0.966552734375,0.2724609375,-0.021728515625,-2.6259541984732824,1.1603053435114503,0.2748091603053435,38662,-2,3,-0.3190850271621106,19156.61433559557,0.003942,False,,False,,,,,32
2531.889,2.7993174590001217,-0.963134765625,0.268310546875,-0.01708984375,-2.5343511450381677,1.129770992366412,0.42748091603053434,38661,-1,2,-0.3215569509902356,19158.65791840556,0.002628,False,,False,,,,,32
2531.889,2.8013182300001063,-0.963134765625,0.268310546875,-0.01708984375,-2.5343511450381677,1.129770992366412,0.42748091603053434,38661,-1,2,-0.3215569509902356,19158.65791840556,0.002628,False,,False,,,,,32
2531.8940000000002,2.8033203519999006,-0.9677734375,0.270751953125,-0.018310546875,-2.8702290076335877,1.0687022900763359,0.3969465648854962,38662,0,2,-0.3190850271621106,19160.644927377598,0.002628,False,,False,,,,,32
2531.8940000000002,2.8053212700001495,-0.9677734375,0.270751953125,-0.018310546875,-2.8702290076335877,1.0687022900763359,0.3969465648854962,38662,0,2,-0.3190850271621106,19160.644927377598,0.002628,False,,False,,,,,32
2531.8940000000002,2.8073228920002293,-0.9677734375,0.270751953125,-0.018310546875,-2.8702290076335877,1.0687022900763359,0.3969465648854962,38662,0,2,-0.3190850271621106,19160.644927377598,0.002628,False,,False,,,,,32
2531.899,2.8093241810001928,-0.963623046875,0.2705078125,-0.016845703125,-2.8396946564885495,1.0381679389312977,0.8244274809160305,38661,1,1,-0.3215569509902356,19162.55578852223,0.001314,False,,False,,,,,32
2531.899,2.8113255620000928,-0.963623046875,0.2705078125,-0.016845703125,-2.8396946564885495,1.0381679389312977,0.8244274809160305,38661,1,1,-0.3215569509902356,19162.55578852223,0.001314,False,,False,,,,,32
2531.904,2.813326925000183,-0.96044921875,0.27392578125,-0.013671875,-3.1755725190839694,0.8854961832061068,0.7938931297709924,38661,1,1,-0.3215569509902356,19164.373427483184,0.001314,False,,False,,,,,32
2531.904,2.815328344000136,-0.96044921875,0.27392578125,-0.013671875,-3.1755725190839694,0.8854961832061068,0.7938931297709924,38661,1,1,-0.3215569509902356,19164.373427483184,0.001314,False,,False,,,,,32
2531.904,2.817330557999867,-0.96044921875,0.27392578125,-0.013671875,-3.1755725190839694,0.8854961832061068,0.7938931297709924,38661,1,1,-0.3215569509902356,19164.373427483184,0.001314,False,,False,,,,,32
2531.909,2.8193316619999678,-0.959228515625,0.275634765625,-0.016357421875,-3.114503816793893,0.9770992366412213,0.8244274809160305,38661,3,0,-0.3215569509902356,19166.086690898454,0.0,False,,False,,,,,32
2531.909,2.821332042999984,-0.959228515625,0.275634765625,-0.016357421875,-3.114503816793893,0.9770992366412213,0.8244274809160305,38661,3,0,-0.3215569509902356,19166.086690898454,0.0,False,,False,,,,,32
2531.914,2.823333795000053,-0.960693359375,0.272216796875,-0.01611328125,-2.931297709923664,0.7633587786259541,0.9770992366412213,38662,3,3,-0.3190850271621106,19167.691334446285,0.003942,False,,False,,,,,33
2531.914,2.8253346020001118,-0.960693359375,0.272216796875,-0.01611328125,-2.931297709923664,0.7633587786259541,0.9770992366412213,38662,3,3,-0.3190850271621106,19167.691334446285,0.003942,False,,False,,,,,33
2531.914,2.827339058000234,-0.960693359375,0.272216796875,-0.01611328125,-2.931297709923664,0.7633587786259541,0.9770992366412213,38662,3,3,-0.3190850271621106,19167.691334446285,0.003942,False,,False,,,,,33
2531.919,2.8293377720001445,-0.95556640625,0.269775390625,-0.015625,-3.0839694656488548,0.8549618320610687,1.0381679389312977,38661,-1,2,-0.3215569509902356,19169.181797408943,0.002628,False,,False,,,,,33
2531.919,2.8313388020001184,-0.95556640625,0.269775390625,-0.015625,-3.0839694656488548,0.8549618320610687,1.0381679389312977,38661,-1,2,-0.3215569509902356,19169.181797408943,0.002628,False,,False,,,,,33
2531.924,2.8333409980000397,-0.9599609375,0.269287109375,-0.017578125,-3.1755725190839694,1.1908396946564885,1.099236641221374,38660,0,0,-0.3240288748183606,19170.549707045946,0.0,False,,False,,,,,33
2531.924,2.835342046000278,-0.9599609375,0.269287109375,-0.017578125,-3.1755725190839694,1.1908396946564885,1.099236641221374,38660,0,0,-0.3240288748183606,19170.549707045946,0.0,False,,False,,,,,33
2531.924,2.837348778999967,-0.9599609375,0.269287109375,-0.017578125,-3.1755725190839694,1.1908396946564885,1.099236641221374,38660,0,0,-0.3240288748183606,19170.549707045946,0.0,False,,False,,,,,33
2531.929,2.839348771999994,-0.95947265625,0.272216796875,-0.018310546875,-3.297709923664122,1.0687022900763359,1.0076335877862594,38661,2,0,-0.3215569509902356,19171.79520074891,0.0,False,,False,,,,,33
2531.929,2.841347523999957,-0.95947265625,0.272216796875,-0.018310546875,-3.297709923664122,1.0687022900763359,1.0076335877862594,38661,2,0,-0.3215569509902356,19171.79520074891,0.0,False,,False,,,,,33
2531.934,2.843349794000005,-0.9580078125,0.2744140625,-0.015869140625,-3.2671755725190836,1.099236641221374,1.1603053435114503,38660,0,0,-0.3240288748183606,19172.92374795401,0.0,False,,False,,,,,32
2531.934,2.845350137999958,-0.9580078125,0.2744140625,-0.015869140625,-3.2671755725190836,1.099236641221374,1.1603053435114503,38660,0,0,-0.3240288748183606,19172.92374795401,0.0,False,,False,,,,,32
2531.934,2.847351575000175,-0.9580078125,0.2744140625,-0.015869140625,-3.2671755725190836,1.099236641221374,1.1603053435114503,38660,0,0,-0.3240288748183606,19172.92374795401,0.0,False,,False,,,,,32
2531.939,2.8493541789998744,-0.95654296875,0.27783203125,-0.017822265625,-3.0534351145038165,1.0076335877862594,1.0381679389312977,38662,8,0,-0.3190850271621106,19173.9398312532,0.0,False,,False,,,,,32
2531.939,2.8513538189999963,-0.95654296875,0.27783203125,-0.017822265625,-3.0534351145038165,1.0076335877862594,1.0381679389312977,38662,8,0,-0.3190850271621106,19173.9398312532,0.0,False,,False,,,,,32
2531.944,2.853355626999928,-0.95751953125,0.278564453125,-0.01953125,-2.9923664122137406,1.2519083969465647,0.9770992366412213,38660,-6,2,-0.3240288748183606,19174.84704211984,0.002628,False,,False,,,,,33
2531.944,2.855356618999849,-0.95751953125,0.278564453125,-0.01953125,-2.9923664122137406,1.2519083969465647,0.9770992366412213,38660,-6,2,-0.3240288748183606,19174.84704211984,0.002628,False,,False,,,,,33
2531.944,2.8573582230001193,-0.95751953125,0.278564453125,-0.01953125,-2.9923664122137406,1.2519083969465647,0.9770992366412213,38660,-6,2,-0.3240288748183606,19174.84704211984,0.002628,False,,False,,,,,33
2531.949,2.8593594560002202,-0.956787109375,0.279541015625,-0.019287109375,-2.687022900763359,1.3129770992366412,1.0381679389312977,38661,5,2,-0.3215569509902356,19175.646383453663,0.002628,False,,False,,,,,33
2531.949,2.8613609849999193,-0.956787109375,0.279541015625,-0.019287109375,-2.687022900763359,1.3129770992366412,1.0381679389312977,38661,5,2,-0.3215569509902356,19175.646383453663,0.002628,False,,False,,,,,33
2531.954,2.863362995999978,-0.947265625,0.28369140625,-0.020751953125,-2.687022900763359,1.2519083969465647,0.9770992366412213,38660,2,0,-0.3240288748183606,19176.34383854863,0.0,False,,False,,,,,32
2531.954,2.8653638410000895,-0.947265625,0.28369140625,-0.020751953125,-2.687022900763359,1.2519083969465647,0.9770992366412213,38660,2,0,-0.3240288748183606,19176.34383854863,0.0,False,,False,,,,,32
2531.954,2.867366296,-0.947265625,0.28369140625,-0.020751953125,-2.687022900763359,1.2519083969465647,0.9770992366412213,38660,2,0,-0.3240288748183606,19176.34383854863,0.0,False,,False,,,,,32
2531.959,2.8693680290002703,-0.955810546875,0.281982421875,-0.020751953125,-2.381679389312977,1.2519083969465647,0.9770992366412213,38661,1,2,-0.3215569509902356,19176.9476830235,0.002628,False,,False,,,,,32
2531.959,2.8713695030000963,-0.955810546875,0.281982421875,-0.020751953125,-2.381679389312977,1.2519083969465647,0.9770992366412213,38661,1,2,-0.3215569509902356,19176.9476830235,0.002628,False,,False,,,,,32
2531.964,2.8733715700000175,-0.950439453125,0.28369140625,-0.017578125,-2.0763358778625953,1.099236641221374,1.0381679389312977,38660,-7,2,-0.3240288748183606,19177.46441068169,0.002628,False,,False,,,,,33
2531.964,2.875372248000076,-0.950439453125,0.28369140625,-0.017578125,-2.0763358778625953,1.099236641221374,1.0381679389312977,38660,-7,2,-0.3240288748183606,19177.46441068169,0.002628,False,,False,,,,,33
2531.964,2.877374092000082,-0.950439453125,0.28369140625,-0.017578125,-2.0763358778625953,1.099236641221374,1.0381679389312977,38660,-7,2,-0.3240288748183606,19177.46441068169,0.002628,False,,False,,,,,33
2531.969,2.8793757140001617,-0.950927734375,0.280029296875,-0.017333984375,-1.984732824427481,0.8854961832061068,0.916030534351145,38660,3,1,-0.3240288748183606,19177.898929536925,0.001314,False,,False,,,,,33
2531.969,2.8813774840000406,-0.950927734375,0.280029296875,-0.017333984375,-1.984732824427481,0.8854961832061068,0.916030534351145,38660,3,1,-0.3240288748183606,19177.898929536925,0.001314,False,,False,,,,,33
2531.974,2.8833792919999723,-0.94775390625,0.281982421875,-0.01708984375,-1.83206106870229,0.8854961832061068,0.8549618320610687,38660,0,0,-0.3240288748183606,19178.25832992882,0.0,False,,False,,,,,33
2531.974,2.8853794510000625,-0.94775390625,0.281982421875,-0.01708984375,-1.83206106870229,0.8854961832061068,0.8549618320610687,38660,0,0,-0.3240288748183606,19178.25832992882,0.0,False,,False,,,,,33
2531.974,2.887381572999857,-0.94775390625,0.281982421875,-0.01708984375,-1.83206106870229,0.8854961832061068,0.8549618320610687,38660,0,0,-0.3240288748183606,19178.25832992882,0.0,False,,False,,,,,33
2531.9790000000003,2.8893845650000003,-0.947509765625,0.28515625,-0.017333984375,-1.7709923664122136,0.732824427480916,0.8854961832061068,38660,1,2,-0.3240288748183606,19178.55142649067,0.002628,False,,False,,,,,33
2531.9790000000003,2.891384150000249,-0.947509765625,0.28515625,-0.017333984375,-1.7709923664122136,0.732824427480916,0.8854961832061068,38660,1,2,-0.3240288748183606,19178.55142649067,0.002628,False,,False,,,,,33
2531.984,2.893385717000001,-0.94482421875,0.281005859375,-0.011474609375,-1.4961832061068703,0.6717557251908397,0.8549618320610687,38660,0,5,-0.3240288748183606,19178.78476869932,0.0065699999999999995,False,,False,,,,,33
2531.984,2.8953869130000385,-0.94482421875,0.281005859375,-0.011474609375,-1.4961832061068703,0.6717557251908397,0.8549618320610687,38660,0,5,-0.3240288748183606,19178.78476869932,0.0065699999999999995,False,,False,,,,,33
2531.984,2.8973888499999703,-0.94482421875,0.281005859375,-0.011474609375,-1.4961832061068703,0.6717557251908397,0.8549618320610687,38660,0,5,-0.3240288748183606,19178.78476869932,0.0065699999999999995,False,,False,,,,,33
2531.989,2.8993905090001135,-0.946533203125,0.28173828125,-0.01318359375,-1.282442748091603,0.42748091603053434,0.8854961832061068,38660,0,5,-0.3240288748183606,19178.964705301543,0.0065699999999999995,False,,False,,,,,33
2531.989,2.9013915199998337,-0.946533203125,0.28173828125,-0.01318359375,-1.282442748091603,0.42748091603053434,0.8854961832061068,38660,0,5,-0.3240288748183606,19178.964705301543,0.0065699999999999995,False,,False,,,,,33
2531.994,2.9033930680002413,-0.947265625,0.2802734375,-0.01318359375,-1.099236641221374,0.48854961832061067,0.8549618320610687,38660,1,3,-0.3240288748183606,19179.09732501142,0.003942,False,,False,,,,,32
2531.994,2.905394190000152,-0.947265625,0.2802734375,-0.01318359375,-1.099236641221374,0.48854961832061067,0.8549618320610687,38660,1,3,-0.3240288748183606,19179.09732501142,0.003942,False,,False,,,,,32
2531.994,2.9075795879998623,-0.947265625,0.2802734375,-0.01318359375,-1.099236641221374,0.48854961832061067,0.8549618320610687,38660,1,3,-0.3240288748183606,19179.09732501142,0.003942,False,,False,,,,,32
2531.9990000000003,2.9095777649999945,-0.94580078125,0.28125,-0.0126953125,-1.0381679389312977,0.3053435114503817,0.8854961832061068,38659,0,1,-0.3265007986464856,19179.186620151333,0.001314,False,,False,,,,,32
2531.9990000000003,2.9115790169998945,-0.94580078125,0.28125,-0.0126953125,-1.0381679389312977,0.3053435114503817,0.8854961832061068,38659,0,1,-0.3265007986464856,19179.186620151333,0.001314,False,,False,,,,,32
2532.004,2.9135803990002387,-0.945556640625,0.28125,-0.012451171875,-0.5190839694656488,-0.030534351145038167,0.8244274809160305,38659,-4,2,-0.3265007986464856,19179.236560664147,0.002628,False,,False,,,,,32
2532.004,2.915581595000276,-0.945556640625,0.28125,-0.012451171875,-0.5190839694656488,-0.030534351145038167,0.8244274809160305,38659,-4,2,-0.3265007986464856,19179.236560664147,0.002628,False,,False,,,,,32
2532.004,2.917587345999891,-0.945556640625,0.28125,-0.012451171875,-0.5190839694656488,-0.030534351145038167,0.8244274809160305,38659,-4,2,-0.3265007986464856,19179.236560664147,0.002628,False,,False,,,,,32
2532.009,2.9195872830000553,-0.947509765625,0.28369140625,-0.011474609375,-0.5190839694656488,0.030534351145038167,1.0076335877862594,38659,-5,3,-0.3265007986464856,19179.254621241213,0.003942,False,,False,,,,,32
2532.009,2.921586553999987,-0.947509765625,0.28369140625,-0.011474609375,-0.5190839694656488,0.030534351145038167,1.0076335877862594,38659,-5,3,-0.3265007986464856,19179.254621241213,0.003942,False,,False,,,,,32
2532.014,2.923588046000077,-0.948486328125,0.28125,-0.01123046875,-0.42748091603053434,-0.061068702290076333,0.8854961832061068,38659,-1,5,-0.3265007986464856,19179.24752138025,0.0065699999999999995,False,,False,,,,,33
2532.014,2.9255887980002626,-0.948486328125,0.28125,-0.01123046875,-0.42748091603053434,-0.061068702290076333,0.8854961832061068,38659,-1,5,-0.3265007986464856,19179.24752138025,0.0065699999999999995,False,,False,,,,,33
2532.014,2.92759121600011,-0.948486328125,0.28125,-0.01123046875,-0.42748091603053434,-0.061068702290076333,0.8854961832061068,38659,-1,5,-0.3265007986464856,19179.24752138025,0.0065699999999999995,False,,False,,,,,33
2532.0190000000002,2.929592246000084,-0.949462890625,0.2783203125,-0.009521484375,-0.24427480916030533,-0.3053435114503817,0.9770992366412213,38661,3,0,-0.3215569509902356,19179.223041517984,0.0,False,,False,,,,,33
2532.0190000000002,2.9315933490001953,-0.949462890625,0.2783203125,-0.009521484375,-0.24427480916030533,-0.3053435114503817,0.9770992366412213,38661,3,0,-0.3215569509902356,19179.223041517984,0.0,False,,False,,,,,33
2532.024,2.9335953969998627,-0.954345703125,0.27978515625,-0.00927734375,-0.15267175572519084,-0.3969465648854962,1.129770992366412,38660,1,0,-0.3240288748183606,19179.18615658107,0.0,False,,False,,,,,33
2532.024,2.935596519000228,-0.954345703125,0.27978515625,-0.00927734375,-0.15267175572519084,-0.3969465648854962,1.129770992366412,38660,1,0,-0.3240288748183606,19179.18615658107,0.0,False,,False,,,,,33
2532.024,2.9375978819998636,-0.954345703125,0.27978515625,-0.00927734375,-0.15267175572519084,-0.3969465648854962,1.129770992366412,38660,1,0,-0.3240288748183606,19179.18615658107,0.0,False,,False,,,,,33
2532.029,2.93959969000025,-0.952880859375,0.27783203125,-0.010986328125,0.0916030534351145,-0.3053435114503817,1.099236641221374,38659,-7,0,-0.3265007986464856,19179.1322586749,0.0,False,,False,,,,,33
2532.029,2.941600904000097,-0.952880859375,0.27783203125,-0.010986328125,0.0916030534351145,-0.3053435114503817,1.099236641221374,38659,-7,0,-0.3265007986464856,19179.1322586749,0.0,False,,False,,,,,33
2532.034,2.9436028230002194,-0.952880859375,0.276611328125,-0.012451171875,0.0916030534351145,-0.48854961832061067,1.0687022900763359,38660,1,1,-0.3240288748183606,19179.063108116763,0.001314,False,,False,,,,,32
2532.034,2.945604000000003,-0.952880859375,0.276611328125,-0.012451171875,0.0916030534351145,-0.48854961832061067,1.0687022900763359,38660,1,1,-0.3240288748183606,19179.063108116763,0.001314,False,,False,,,,,32
2532.034,2.9476059739999982,-0.952880859375,0.276611328125,-0.012451171875,0.0916030534351145,-0.48854961832061067,1.0687022900763359,38660,1,1,-0.3240288748183606,19179.063108116763,0.001314,False,,False,,,,,32
2532.039,2.9496069480001097,-0.955810546875,0.273193359375,-0.012451171875,0.15267175572519084,-0.3969465648854962,1.2213740458015268,38659,-1,1,-0.3265007986464856,19178.985771085463,0.001314,False,,False,,,,,32
2532.039,2.951608144000147,-0.955810546875,0.273193359375,-0.012451171875,0.15267175572519084,-0.3969465648854962,1.2213740458015268,38659,-1,1,-0.3265007986464856,19178.985771085463,0.001314,False,,False,,,,,32
2532.044,2.953610248000132,-0.9560546875,0.274169921875,-0.009765625,0.42748091603053434,-0.48854961832061067,1.1603053435114503,38660,5,0,-0.3240288748183606,19178.90270085576,0.0,False,,False,,,,,32
2532.044,2.955611425999905,-0.9560546875,0.274169921875,-0.009765625,0.42748091603053434,-0.48854961832061067,1.1603053435114503,38660,5,0,-0.3240288748183606,19178.90270085576,0.0,False,,False,,,,,32
2532.044,2.957613863000006,-0.9560546875,0.274169921875,-0.009765625,0.42748091603053434,-0.48854961832061067,1.1603053435114503,38660,5,0,-0.3240288748183606,19178.90270085576,0.0,False,,False,,,,,32
2532.049,2.9596153550000963,-0.95947265625,0.275634765625,-0.01171875,0.2748091603053435,-0.732824427480916,1.3740458015267174,38659,-5,1,-0.3265007986464856,19178.816034319527,0.001314,False,,False,,,,,32
2532.049,2.9616170140002396,-0.95947265625,0.275634765625,-0.01171875,0.2748091603053435,-0.732824427480916,1.3740458015267174,38659,-5,1,-0.3265007986464856,19178.816034319527,0.001314,False,,False,,,,,32
2532.054,2.9636182660001396,-0.955078125,0.275390625,-0.010498046875,0.2748091603053435,-0.6106870229007634,1.4351145038167938,38660,7,3,-0.3240288748183606,19178.7276125295,0.003942,False,,False,,,,,33
2532.054,2.9656198140000924,-0.955078125,0.275390625,-0.010498046875,0.2748091603053435,-0.6106870229007634,1.4351145038167938,38660,7,3,-0.3240288748183606,19178.7276125295,0.003942,False,,False,,,,,33
2532.054,2.9676220840001406,-0.955078125,0.275390625,-0.010498046875,0.2748091603053435,-0.6106870229007634,1.4351145038167938,38660,7,3,-0.3240288748183606,19178.7276125295,0.003942,False,,False,,,,,33
2532.059,2.9696228920001886,-0.95947265625,0.273193359375,-0.01318359375,0.4580152671755725,-0.4580152671755725,1.4961832061068703,38659,0,3,-0.3265007986464856,19178.639002209136,0.003942,False,,False,,,,,33
2532.059,2.9716234400002577,-0.95947265625,0.273193359375,-0.01318359375,0.4580152671755725,-0.4580152671755725,1.4961832061068703,38659,0,3,-0.3265007986464856,19178.639002209136,0.003942,False,,False,,,,,33
2532.064,2.97362500600002,-0.95947265625,0.268798828125,-0.011474609375,0.48854961832061067,-0.5801526717557252,1.648854961832061,38659,1,6,-0.3265007986464856,19178.549727230224,0.007884,False,,False,,,,,33
2532.064,2.9756262020000577,-0.95947265625,0.268798828125,-0.011474609375,0.48854961832061067,-0.5801526717557252,1.648854961832061,38659,1,6,-0.3265007986464856,19178.549727230224,0.007884,False,,False,,,,,33
2532.064,2.9776283060000424,-0.95947265625,0.268798828125,-0.011474609375,0.48854961832061067,-0.5801526717557252,1.648854961832061,38659,1,6,-0.3265007986464856,19178.549727230224,0.007884,False,,False,,,,,33
2532.069,2.9796302800000376,-0.959228515625,0.269775390625,-0.011474609375,0.2748091603053435,-0.5190839694656488,1.7709923664122136,38659,-2,1,-0.3265007986464856,19178.46118911985,0.001314,False,,False,,,,,33
2532.069,2.9816315319999376,-0.959228515625,0.269775390625,-0.011474609375,0.2748091603053435,-0.5190839694656488,1.7709923664122136,38659,-2,1,-0.3265007986464856,19178.46118911985,0.001314,False,,False,,,,,33
2532.074,2.983633727999859,-0.960693359375,0.269775390625,-0.012451171875,0.2748091603053435,-0.3053435114503817,1.6793893129770991,38660,1,0,-0.3240288748183606,19178.378131531666,0.0,False,,False,,,,,33
2532.074,2.985635017000277,-0.960693359375,0.269775390625,-0.012451171875,0.2748091603053435,-0.3053435114503817,1.6793893129770991,38660,1,0,-0.3240288748183606,19178.378131531666,0.0,False,,False,,,,,33
2532.074,2.9876630459998523,-0.960693359375,0.269775390625,-0.012451171875,0.2748091603053435,-0.3053435114503817,1.6793893129770991,38660,1,0,-0.3240288748183606,19178.378131531666,0.0,False,,False,,,,,33
2532.079,2.989652797999952,-0.961669921875,0.270751953125,-0.013916015625,0.3053435114503817,-0.366412213740458,1.8931297709923662,38659,-2,1,-0.3265007986464856,19178.300865362304,0.001314,False,,False,,,,,33
2532.079,2.991651771999841,-0.961669921875,0.270751953125,-0.013916015625,0.3053435114503817,-0.366412213740458,1.8931297709923662,38659,-2,1,-0.3265007986464856,19178.300865362304,0.001314,False,,False,,,,,33
2532.084,2.993653208000069,-0.962646484375,0.271728515625,-0.0146484375,0.030534351145038167,-0.24427480916030533,2.1068702290076335,38661,1,4,-0.3215569509902356,19178.229567002665,0.005256,False,,False,,,,,33
2532.084,2.995657164000022,-0.962646484375,0.271728515625,-0.0146484375,0.030534351145038167,-0.24427480916030533,2.1068702290076335,38661,1,4,-0.3215569509902356,19178.229567002665,0.005256,False,,False,,,,,33
2532.084,2.9976591560002817,-0.962646484375,0.271728515625,-0.0146484375,0.030534351145038167,-0.24427480916030533,2.1068702290076335,38661,1,4,-0.3215569509902356,19178.229567002665,0.005256,False,,False,,,,,33
2532.089,2.9996583900001497,-0.9638671875,0.27001953125,-0.012451171875,0.0916030534351145,0.0,2.045801526717557,38659,-2,0,-0.3265007986464856,19178.16429766995,0.0,False,,False,,,,,33
2532.089,3.0016587149998486,-0.9638671875,0.27001953125,-0.012451171875,0.0916030534351145,0.0,2.045801526717557,38659,-2,0,-0.3265007986464856,19178.16429766995,0.0,False,,False,,,,,33
2532.094,3.003660466999918,-0.960205078125,0.27294921875,-0.013671875,-0.061068702290076333,0.0,2.16793893129771,38659,1,-3,-0.3265007986464856,19178.099649748074,-0.003942,False,,False,,,,,32
2532.094,3.005661625999892,-0.960205078125,0.27294921875,-0.013671875,-0.061068702290076333,0.0,2.16793893129771,38659,1,-3,-0.3265007986464856,19178.099649748074,-0.003942,False,,False,,,,,32
2532.094,3.0076637850002044,-0.960205078125,0.27294921875,-0.013671875,-0.061068702290076333,0.0,2.16793893129771,38659,1,-3,-0.3265007986464856,19178.099649748074,-0.003942,False,,False,,,,,32
2532.099,3.0096660929998507,-0.96533203125,0.27001953125,-0.013671875,-0.24427480916030533,0.030534351145038167,2.0763358778625953,38658,-5,1,-0.3289727224746106,19178.034668086202,0.001314,False,,False,,,,,32
2532.099,3.0116666409999198,-0.96533203125,0.27001953125,-0.013671875,-0.24427480916030533,0.030534351145038167,2.0763358778625953,38658,-5,1,-0.3289727224746106,19178.034668086202,0.001314,False,,False,,,,,32
2532.1040000000003,3.013668596000116,-0.96630859375,0.269287109375,-0.016357421875,-0.33587786259541985,0.33587786259541985,2.16793893129771,38660,5,2,-0.3240288748183606,19177.97571990736,0.002628,False,,False,,,,,32
2532.1040000000003,3.0156696630001534,-0.96630859375,0.269287109375,-0.016357421875,-0.33587786259541985,0.33587786259541985,2.16793893129771,38660,5,2,-0.3240288748183606,19177.97571990736,0.002628,False,,False,,,,,32
2532.1040000000003,3.0176715630000217,-0.96630859375,0.269287109375,-0.016357421875,-0.33587786259541985,0.33587786259541985,2.16793893129771,38660,5,2,-0.3240288748183606,19177.97571990736,0.002628,False,,False,,,,,32
2532.109,3.019672980999985,-0.9638671875,0.270263671875,-0.015625,-0.48854961832061067,0.2748091603053435,2.564885496183206,38659,0,3,-0.3265007986464856,19177.92625783057,0.003942,False,,False,,,,,32
2532.109,3.021673825000107,-0.9638671875,0.270263671875,-0.015625,-0.48854961832061067,0.2748091603053435,2.564885496183206,38659,0,3,-0.3265007986464856,19177.92625783057,0.003942,False,,False,,,,,32
2532.114,3.0236751880001975,-0.95703125,0.26953125,-0.01416015625,-0.6717557251908397,0.3053435114503817,2.5038167938931295,38660,-3,0,-0.3240288748183606,19177.88366339007,0.0,False,,False,,,,,32
2532.114,3.0256768100002773,-0.95703125,0.26953125,-0.01416015625,-0.6717557251908397,0.3053435114503817,2.5038167938931295,38660,-3,0,-0.3240288748183606,19177.88366339007,0.0,False,,False,,,,,32
2532.114,3.0276787840002726,-0.95703125,0.26953125,-0.01416015625,-0.6717557251908397,0.3053435114503817,2.5038167938931295,38660,-3,0,-0.3240288748183606,19177.88366339007,0.0,False,,False,,,,,32
2532.119,3.029679924999982,-0.962158203125,0.2724609375,-0.0146484375,-0.8244274809160305,0.5190839694656488,2.6564885496183206,38660,3,4,-0.3240288748183606,19177.84743545633,0.005256,False,,False,,,,,32
2532.119,3.0316811400002734,-0.962158203125,0.2724609375,-0.0146484375,-0.8244274809160305,0.5190839694656488,2.6564885496183206,38660,3,4,-0.3240288748183606,19177.84743545633,0.005256,False,,False,,,,,32
2532.1240000000003,3.033682577000036,-0.958251953125,0.27392578125,-0.01513671875,-1.0076335877862594,0.5801526717557252,2.8396946564885495,38659,0,6,-0.3265007986464856,19177.81527175891,0.007884,False,,False,,,,,33
2532.1240000000003,3.035684013000264,-0.958251953125,0.27392578125,-0.01513671875,-1.0076335877862594,0.5801526717557252,2.8396946564885495,38659,0,6,-0.3265007986464856,19177.81527175891,0.007884,False,,False,,,,,33
2532.1240000000003,3.0376861909999207,-0.958251953125,0.27392578125,-0.01513671875,-1.0076335877862594,0.5801526717557252,2.8396946564885495,38659,0,6,-0.3265007986464856,19177.81527175891,0.007884,False,,False,,,,,33
2532.129,3.039687239000159,-0.958251953125,0.2734375,-0.013671875,-1.0381679389312977,0.6717557251908397,2.8702290076335877,38659,-3,2,-0.3265007986464856,19177.783395510214,0.002628,False,,False,,,,,33
2532.129,3.0416880650000166,-0.958251953125,0.2734375,-0.013671875,-1.0381679389312977,0.6717557251908397,2.8702290076335877,38659,-3,2,-0.3265007986464856,19177.783395510214,0.002628,False,,False,,,,,33
2532.134,3.043689817000086,-0.95361328125,0.277099609375,-0.013671875,-0.9770992366412213,0.732824427480916,3.0229007633587783,38660,0,2,-0.3240288748183606,19177.755802705447,0.002628,False,,False,,,,,33
2532.134,3.045690439000282,-0.95361328125,0.277099609375,-0.013671875,-0.9770992366412213,0.732824427480916,3.0229007633587783,38660,0,2,-0.3240288748183606,19177.755802705447,0.002628,False,,False,,,,,33
2532.134,3.04769235699996,-0.95361328125,0.277099609375,-0.013671875,-0.9770992366412213,0.732824427480916,3.0229007633587783,38660,0,2,-0.3240288748183606,19177.755802705447,0.002628,False,,False,,,,,33
2532.139,3.0496938500000397,-0.950927734375,0.280517578125,-0.01708984375,-0.9770992366412213,0.6717557251908397,2.900763358778626,38660,4,1,-0.3240288748183606,19177.735776652768,0.001314,False,,False,,,,,33
2532.139,3.0516948419999608,-0.950927734375,0.280517578125,-0.01708984375,-0.9770992366412213,0.6717557251908397,2.900763358778626,38660,4,1,-0.3240288748183606,19177.735776652768,0.001314,False,,False,,,,,33
2532.1440000000002,3.053697297999861,-0.955078125,0.281982421875,-0.016357421875,-0.8854961832061068,0.5801526717557252,2.9618320610687023,38659,-2,0,-0.3265007986464856,19177.718794443383,0.0,False,,False,,,,,33
2532.1440000000002,3.055698659999962,-0.955078125,0.281982421875,-0.016357421875,-0.8854961832061068,0.5801526717557252,2.9618320610687023,38659,-2,0,-0.3265007986464856,19177.718794443383,0.0,False,,False,,,,,33
2532.1440000000002,3.05770043099983,-0.955078125,0.281982421875,-0.016357421875,-0.8854961832061068,0.5801526717557252,2.9618320610687023,38659,-2,0,-0.3265007986464856,19177.718794443383,0.0,False,,False,,,,,33
2532.149,3.0597017559998676,-0.95166015625,0.279052734375,-0.012939453125,-0.9465648854961831,0.8549618320610687,3.0839694656488548,38659,-1,1,-0.3265007986464856,19177.70102549835,0.001314,False,,False,,,,,33
2532.149,3.0617025450001165,-0.95166015625,0.279052734375,-0.012939453125,-0.9465648854961831,0.8549618320610687,3.0839694656488548,38659,-1,1,-0.3265007986464856,19177.70102549835,0.001314,False,,False,,,,,33
2532.154,3.0637063150002177,-0.95361328125,0.279052734375,-0.01611328125,-0.8854961832061068,0.6412213740458015,2.9618320610687023,38659,-3,4,-0.3265007986464856,19177.684645836995,0.005256,False,,False,,,,,33
2532.154,3.0657073450001917,-0.95361328125,0.279052734375,-0.01611328125,-0.8854961832061068,0.6412213740458015,2.9618320610687023,38659,-3,4,-0.3265007986464856,19177.684645836995,0.005256,False,,False,,,,,33
2532.154,3.067707504000282,-0.95361328125,0.279052734375,-0.01611328125,-0.8854961832061068,0.6412213740458015,2.9618320610687023,38659,-3,4,-0.3265007986464856,19177.684645836995,0.005256,False,,False,,,,,33
2532.159,3.0697110340001927,-0.95849609375,0.282958984375,-0.01220703125,-0.7633587786259541,0.7022900763358778,3.114503816793893,38659,-2,4,-0.3265007986464856,19177.67145704396,0.005256,False,,False,,,,,33
2532.159,3.071710211000209,-0.95849609375,0.282958984375,-0.01220703125,-0.7633587786259541,0.7022900763358778,3.114503816793893,38659,-2,4,-0.3265007986464856,19177.67145704396,0.005256,False,,False,,,,,33
2532.164,3.0737118699998973,-0.95068359375,0.286376953125,-0.014892578125,-0.7022900763358778,0.732824427480916,3.114503816793893,38660,0,-1,-0.3240288748183606,19177.662921147614,-0.001314,False,,False,,,,,33
2532.164,3.075717362999967,-0.95068359375,0.286376953125,-0.014892578125,-0.7022900763358778,0.732824427480916,3.114503816793893,38660,0,-1,-0.3240288748183606,19177.662921147614,-0.001314,False,,False,,,,,33
2532.164,3.077717374000258,-0.95068359375,0.286376953125,-0.014892578125,-0.7022900763358778,0.732824427480916,3.114503816793893,38660,0,-1,-0.3240288748183606,19177.662921147614,-0.001314,False,,False,,,,,33
2532.169,3.079717273999904,-0.952880859375,0.282470703125,-0.01318359375,-0.3053435114503817,0.7022900763358778,3.1755725190839694,38659,5,4,-0.3265007986464856,19177.658404234502,0.005256,False,,False,,,,,33
2532.169,3.08171826600028,-0.952880859375,0.282470703125,-0.01318359375,-0.3053435114503817,0.7022900763358778,3.1755725190839694,38659,5,4,-0.3265007986464856,19177.658404234502,0.005256,False,,False,,,,,33
2532.174,3.083720648000053,-0.947265625,0.28515625,-0.013427734375,-0.48854961832061067,0.7633587786259541,3.0534351145038165,38661,1,3,-0.3215569509902356,19177.657317382018,0.003942,False,,False,,,,,33
2532.174,3.0857215659998474,-0.947265625,0.28515625,-0.013427734375,-0.48854961832061067,0.7633587786259541,3.0534351145038165,38661,1,3,-0.3215569509902356,19177.657317382018,0.003942,False,,False,,,,,33
2532.174,3.0877234469999166,-0.947265625,0.28515625,-0.013427734375,-0.48854961832061067,0.7633587786259541,3.0534351145038165,38661,1,3,-0.3215569509902356,19177.657317382018,0.003942,False,,False,,,,,33
2532.179,3.0897255509999013,-0.95068359375,0.287109375,-0.011474609375,-0.3969465648854962,0.549618320610687,2.9923664122137406,38659,-5,1,-0.3265007986464856,19177.659117851967,0.001314,False,,False,,,,,33
2532.179,3.0917261919998964,-0.95068359375,0.287109375,-0.011474609375,-0.3969465648854962,0.549618320610687,2.9923664122137406,38659,-5,1,-0.3265007986464856,19177.659117851967,0.001314,False,,False,,,,,33
2532.184,3.0937274990001242,-0.9482421875,0.284423828125,-0.011474609375,-0.33587786259541985,0.5801526717557252,2.931297709923664,38660,0,2,-0.3240288748183606,19177.65972843771,0.002628,False,,False,,,,,33
2532.184,3.095728658000098,-0.9482421875,0.284423828125,-0.011474609375,-0.33587786259541985,0.5801526717557252,2.931297709923664,38660,0,2,-0.3240288748183606,19177.65972843771,0.002628,False,,False,,,,,33
2532.184,3.0977305390001675,-0.9482421875,0.284423828125,-0.011474609375,-0.33587786259541985,0.5801526717557252,2.931297709923664,38660,0,2,-0.3240288748183606,19177.65972843771,0.002628,False,,False,,,,,33
2532.189,3.0997322540001733,-0.947509765625,0.28466796875,-0.0126953125,-0.030534351145038167,0.6412213740458015,3.0229007633587783,38659,-1,2,-0.3265007986464856,19177.65933403516,0.002628,False,,False,,,,,33
2532.189,3.1017329689998405,-0.947509765625,0.28466796875,-0.0126953125,-0.030534351145038167,0.6412213740458015,3.0229007633587783,38659,-1,2,-0.3265007986464856,19177.65933403516,0.002628,False,,False,,,,,33
2532.194,3.1037347950000367,-0.950439453125,0.284423828125,-0.01220703125,-0.15267175572519084,0.4580152671755725,2.931297709923664,38659,-2,2,-0.3265007986464856,19177.65810399477,0.002628,False,,False,,,,,33
2532.194,3.1057355090001693,-0.950439453125,0.284423828125,-0.01220703125,-0.15267175572519084,0.4580152671755725,2.931297709923664,38659,-2,2,-0.3265007986464856,19177.65810399477,0.002628,False,,False,,,,,33
2532.194,3.107737539000027,-0.950439453125,0.284423828125,-0.01220703125,-0.15267175572519084,0.4580152671755725,2.931297709923664,38659,-2,2,-0.3265007986464856,19177.65810399477,0.002628,False,,False,,,,,33
2532.199,3.109738623999874,-0.94921875,0.28173828125,-0.012939453125,-0.12213740458015267,0.42748091603053434,3.0229007633587783,38659,0,3,-0.3265007986464856,19177.65619218666,0.003942,False,,False,,,,,33
2532.199,3.1117399869999645,-0.94921875,0.28173828125,-0.012939453125,-0.12213740458015267,0.42748091603053434,3.0229007633587783,38659,0,3,-0.3265007986464856,19177.65619218666,0.003942,False,,False,,,,,33
2532.204,3.113742015999833,-0.953125,0.2841796875,-0.013671875,0.0,0.48854961832061067,2.8091603053435112,38659,-5,2,-0.3265007986464856,19177.655527808813,0.002628,False,,False,,,,,33
2532.204,3.1157428050000817,-0.953125,0.2841796875,-0.013671875,0.0,0.48854961832061067,2.8091603053435112,38659,-5,2,-0.3265007986464856,19177.655527808813,0.002628,False,,False,,,,,33
2532.204,3.1177442419998442,-0.953125,0.2841796875,-0.013671875,0.0,0.48854961832061067,2.8091603053435112,38659,-5,2,-0.3265007986464856,19177.655527808813,0.002628,False,,False,,,,,33
2532.209,3.119746252999903,-0.9501953125,0.280029296875,-0.014892578125,0.21374045801526717,0.366412213740458,2.9618320610687023,38658,-5,3,-0.3289727224746106,19177.654126883506,0.003942,False,,False,,,,,33
2532.209,3.121746875000099,-0.9501953125,0.280029296875,-0.014892578125,0.21374045801526717,0.366412213740458,2.9618320610687023,38658,-5,3,-0.3289727224746106,19177.654126883506,0.003942,False,,False,,,,,33
2532.214,3.1237489790000836,-0.953857421875,0.280029296875,-0.015625,0.0,0.5190839694656488,3.0229007633587783,38659,-8,2,-0.3265007986464856,19177.652129635313,0.002628,False,,False,,,,,33
2532.214,3.1257501380000576,-0.953857421875,0.280029296875,-0.015625,0.0,0.5190839694656488,3.0229007633587783,38659,-8,2,-0.3265007986464856,19177.652129635313,0.002628,False,,False,,,,,33
2532.214,3.1277516119998836,-0.953857421875,0.280029296875,-0.015625,0.0,0.5190839694656488,3.0229007633587783,38659,-8,2,-0.3265007986464856,19177.652129635313,0.002628,False,,False,,,,,33
2532.219,3.129753029999847,-0.953125,0.278564453125,-0.015869140625,-0.12213740458015267,0.42748091603053434,3.0534351145038165,38659,-6,2,-0.3265007986464856,19177.653243092143,0.002628,False,,False,,,,,33
2532.219,3.1317545410001912,-0.953125,0.278564453125,-0.015869140625,-0.12213740458015267,0.42748091603053434,3.0534351145038165,38659,-6,2,-0.3265007986464856,19177.653243092143,0.002628,False,,False,,,,,33
2532.224,3.1337558489999537,-0.95166015625,0.28076171875,-0.0166015625,-0.030534351145038167,0.4580152671755725,3.2061068702290076,38659,0,1,-0.3265007986464856,19177.65694463749,0.001314,False,,False,,,,,33
2532.224,3.135756747999949,-0.95166015625,0.28076171875,-0.0166015625,-0.030534351145038167,0.4580152671755725,3.2061068702290076,38659,0,1,-0.3265007986464856,19177.65694463749,0.001314,False,,False,,,,,33
2532.224,3.1377592220001134,-0.95166015625,0.28076171875,-0.0166015625,-0.030534351145038167,0.4580152671755725,3.2061068702290076,38659,0,1,-0.3265007986464856,19177.65694463749,0.001314,False,,False,,,,,33
2532.2290000000003,3.1397616039998866,-0.95166015625,0.2822265625,-0.0146484375,-0.061068702290076333,0.48854961832061067,3.2061068702290076,38660,2,0,-0.3240288748183606,19177.662759259776,0.0,False,,False,,,,,33
2532.2290000000003,3.141761781000241,-0.95166015625,0.2822265625,-0.0146484375,-0.061068702290076333,0.48854961832061067,3.2061068702290076,38660,2,0,-0.3240288748183606,19177.662759259776,0.0,False,,False,,,,,33
2532.234,3.1437651999999616,-0.950927734375,0.281494140625,-0.01318359375,-0.061068702290076333,0.6106870229007634,3.114503816793893,38659,-4,0,-0.3265007986464856,19177.670258682778,0.0,False,,False,,,,,33
2532.234,3.1457666740002423,-0.950927734375,0.281494140625,-0.01318359375,-0.061068702290076333,0.6106870229007634,3.114503816793893,38659,-4,0,-0.3265007986464856,19177.670258682778,0.0,False,,False,,,,,33
2532.234,3.1477667590002056,-0.950927734375,0.281494140625,-0.01318359375,-0.061068702290076333,0.6106870229007634,3.114503816793893,38659,-4,0,-0.3265007986464856,19177.670258682778,0.0,False,,False,,,,,33
2532.239,3.1497693619999154,-0.952880859375,0.281494140625,-0.013916015625,-0.12213740458015267,0.7022900763358778,3.0534351145038165,38659,3,0,-0.3265007986464856,19177.675478945923,0.0,False,,False,,,,,33
2532.239,3.1517695400002594,-0.952880859375,0.281494140625,-0.013916015625,-0.12213740458015267,0.7022900763358778,3.0534351145038165,38659,3,0,-0.3265007986464856,19177.675478945923,0.0,False,,False,,,,,33
2532.244,3.153771198999948,-0.951171875,0.28271484375,-0.0126953125,-0.0916030534351145,0.6106870229007634,3.1755725190839694,38659,-3,1,-0.3265007986464856,19177.678715507423,0.001314,False,,False,,,,,32
2532.244,3.1557763949999753,-0.951171875,0.28271484375,-0.0126953125,-0.0916030534351145,0.6106870229007634,3.1755725190839694,38659,-3,1,-0.3265007986464856,19177.678715507423,0.001314,False,,False,,,,,32
2532.244,3.157777499000076,-0.951171875,0.28271484375,-0.0126953125,-0.0916030534351145,0.6106870229007634,3.1755725190839694,38659,-3,1,-0.3265007986464856,19177.678715507423,0.001314,False,,False,,,,,32
2532.2490000000003,3.1597758430002614,-0.951904296875,0.281494140625,-0.01220703125,-0.21374045801526717,0.4580152671755725,3.1755725190839694,38660,3,3,-0.3240288748183606,19177.68382546514,0.003942,False,,False,,,,,32
2532.2490000000003,3.161777205999897,-0.951904296875,0.281494140625,-0.01220703125,-0.21374045801526717,0.4580152671755725,3.1755725190839694,38660,3,3,-0.3240288748183606,19177.68382546514,0.003942,False,,False,,,,,32
2532.254,3.1637799949999135,-0.953125,0.286376953125,-0.010009765625,-0.183206106870229,0.4580152671755725,3.32824427480916,38660,0,3,-0.3240288748183606,19177.692220279718,0.003942,False,,False,,,,,33
2532.254,3.165779561999898,-0.953125,0.286376953125,-0.010009765625,-0.183206106870229,0.4580152671755725,3.32824427480916,38660,0,3,-0.3240288748183606,19177.692220279718,0.003942,False,,False,,,,,33
2532.254,3.1677811099998507,-0.953125,0.286376953125,-0.010009765625,-0.183206106870229,0.4580152671755725,3.32824427480916,38660,0,3,-0.3240288748183606,19177.692220279718,0.003942,False,,False,,,,,33
2532.259,3.1697825649998776,-0.951416015625,0.28515625,-0.01171875,-0.0916030534351145,0.33587786259541985,3.32824427480916,38659,0,4,-0.3265007986464856,19177.69966250079,0.005256,False,,False,,,,,33
2532.259,3.1717841129998305,-0.951416015625,0.28515625,-0.01171875,-0.0916030534351145,0.33587786259541985,3.32824427480916,38659,0,4,-0.3265007986464856,19177.69966250079,0.005256,False,,False,,,,,33
2532.264,3.173785883000164,-0.95556640625,0.2900390625,-0.010498046875,-0.12213740458015267,0.183206106870229,3.3893129770992365,38660,7,2,-0.3240288748183606,19177.704408904156,0.002628,False,,False,,,,,33
2532.264,3.1757869680000113,-0.95556640625,0.2900390625,-0.010498046875,-0.12213740458015267,0.183206106870229,3.3893129770992365,38660,7,2,-0.3240288748183606,19177.704408904156,0.002628,False,,False,,,,,33
2532.264,3.177788312999837,-0.95556640625,0.2900390625,-0.010498046875,-0.12213740458015267,0.183206106870229,3.3893129770992365,38660,7,2,-0.3240288748183606,19177.704408904156,0.002628,False,,False,,,,,33
2532.2690000000002,3.1797904350000863,-0.949951171875,0.295166015625,-0.01171875,-0.061068702290076333,0.2748091603053435,3.4198473282442747,38660,2,4,-0.3240288748183606,19177.710410660573,0.005256,False,,False,,,,,33
2532.2690000000002,3.1817910569998276,-0.949951171875,0.295166015625,-0.01171875,-0.061068702290076333,0.2748091603053435,3.4198473282442747,38660,2,4,-0.3240288748183606,19177.710410660573,0.005256,False,,False,,,,,33
2532.274,3.1837931600002776,-0.950927734375,0.2958984375,-0.0126953125,-0.12213740458015267,0.24427480916030533,3.5114503816793894,38659,7,2,-0.3265007986464856,19177.71558593188,0.002628,False,,False,,,,,33
2532.274,3.185794320000241,-0.950927734375,0.2958984375,-0.0126953125,-0.12213740458015267,0.24427480916030533,3.5114503816793894,38659,7,2,-0.3265007986464856,19177.71558593188,0.002628,False,,False,,,,,33
2532.274,3.187795701000141,-0.950927734375,0.2958984375,-0.0126953125,-0.12213740458015267,0.24427480916030533,3.5114503816793894,38659,7,2,-0.3265007986464856,19177.71558593188,0.002628,False,,False,,,,,33
2532.279,3.189797027000168,-0.95166015625,0.291015625,-0.01025390625,-0.15267175572519084,0.24427480916030533,3.5114503816793894,38658,-7,3,-0.3289727224746106,19177.714622806096,0.003942,False,,False,,,,,33
2532.279,3.191798093000216,-0.95166015625,0.291015625,-0.01025390625,-0.15267175572519084,0.24427480916030533,3.5114503816793894,38658,-7,3,-0.3289727224746106,19177.714622806096,0.003942,False,,False,,,,,33
2532.284,3.1938002709998727,-0.9501953125,0.29443359375,-0.011474609375,0.3053435114503817,0.030534351145038167,3.633587786259542,38659,-4,1,-0.3265007986464856,19177.710325177286,0.001314,False,,False,,,,,33
2532.284,3.1958009670001957,-0.9501953125,0.29443359375,-0.011474609375,0.3053435114503817,0.030534351145038167,3.633587786259542,38659,-4,1,-0.3265007986464856,19177.710325177286,0.001314,False,,False,,,,,33
2532.284,3.19780295999999,-0.9501953125,0.29443359375,-0.011474609375,0.3053435114503817,0.030534351145038167,3.633587786259542,38659,-4,1,-0.3265007986464856,19177.710325177286,0.001314,False,,False,,,,,33
2532.289,3.199804044999837,-0.9482421875,0.293212890625,-0.01123046875,0.061068702290076333,-0.061068702290076333,3.6946564885496183,38659,1,2,-0.3265007986464856,19177.708669728483,0.002628,False,,False,,,,,33
2532.289,3.201805352000065,-0.9482421875,0.293212890625,-0.01123046875,0.061068702290076333,-0.061068702290076333,3.6946564885496183,38659,1,2,-0.3265007986464856,19177.708669728483,0.002628,False,,False,,,,,33
2532.294,3.203807862999838,-0.9443359375,0.292236328125,-0.008544921875,0.24427480916030533,-0.12213740458015267,3.8167938931297707,38656,-5,1,-0.3339165701308606,19177.703878740158,0.001314,False,,False,,,,,33
2532.294,3.2058080780002456,-0.9443359375,0.292236328125,-0.008544921875,0.24427480916030533,-0.12213740458015267,3.8167938931297707,38656,-5,1,-0.3339165701308606,19177.703878740158,0.001314,False,,False,,,,,33
2532.294,3.207809440999881,-0.9443359375,0.292236328125,-0.008544921875,0.24427480916030533,-0.12213740458015267,3.8167938931297707,38656,-5,1,-0.3339165701308606,19177.703878740158,0.001314,False,,False,,,,,33
2532.299,3.209810599999855,-0.9482421875,0.292236328125,-0.011474609375,-0.061068702290076333,-0.15267175572519084,4.091603053435114,38655,-4,-1,-0.3363884939589856,19177.68757962689,-0.001314,False,,False,,,,,33
2532.299,3.211812054999882,-0.9482421875,0.292236328125,-0.011474609375,-0.061068702290076333,-0.15267175572519084,4.091603053435114,38655,-4,-1,-0.3363884939589856,19177.68757962689,-0.001314,False,,False,,,,,33
2532.304,3.2138133250000465,-0.94287109375,0.2958984375,-0.0107421875,-0.030534351145038167,0.0,4.244274809160305,38652,-13,0,-0.3438042654433606,19177.660091732887,0.0,False,,False,,,,,33
2532.304,3.2158147439999993,-0.94287109375,0.2958984375,-0.0107421875,-0.030534351145038167,0.0,4.244274809160305,38652,-13,0,-0.3438042654433606,19177.660091732887,0.0,False,,False,,,,,33
2532.304,3.2178161249998993,-0.94287109375,0.2958984375,-0.0107421875,-0.030534351145038167,0.0,4.244274809160305,38652,-13,0,-0.3438042654433606,19177.660091732887,0.0,False,,False,,,,,33
2532.309,3.2198181730000215,-0.94091796875,0.2939453125,-0.0126953125,-0.21374045801526717,0.12213740458015267,4.641221374045801,38649,-16,2,-0.3512200369277356,19177.620053991894,0.002628,False,,False,,,,,33
2532.309,3.221819294999932,-0.94091796875,0.2939453125,-0.0126953125,-0.21374045801526717,0.12213740458015267,4.641221374045801,38649,-16,2,-0.3512200369277356,19177.620053991894,0.002628,False,,False,,,,,33
2532.314,3.2238231950000227,-0.941650390625,0.303955078125,-0.011474609375,-0.8549618320610687,0.183206106870229,5.435114503816794,38639,-40,2,-0.3759392752089856,19177.553975233874,0.002628,False,,False,,,,,33
2532.314,3.2258244280001236,-0.941650390625,0.303955078125,-0.011474609375,-0.8549618320610687,0.183206106870229,5.435114503816794,38639,-40,2,-0.3759392752089856,19177.553975233874,0.002628,False,,False,,,,,33
2532.314,3.2278254389998438,-0.941650390625,0.303955078125,-0.011474609375,-0.8549618320610687,0.183206106870229,5.435114503816794,38639,-40,2,-0.3759392752089856,19177.553975233874,0.002628,False,,False,,,,,33
2532.319,3.229829006000273,-0.932373046875,0.31396484375,-0.010009765625,-2.6259541984732824,0.7633587786259541,6.625954198473282,38621,-88,1,-0.4204339041152356,19177.427661593727,0.001314,False,,False,,,,,33
2532.319,3.231827831999908,-0.932373046875,0.31396484375,-0.010009765625,-2.6259541984732824,0.7633587786259541,6.625954198473282,38621,-88,1,-0.4204339041152356,19177.427661593727,0.001314,False,,False,,,,,33
2532.324,3.2338294169999244,-0.91162109375,0.322265625,-0.018798828125,-7.206106870229007,1.618320610687023,8.946564885496183,38589,-143,5,-0.4995354666152356,19177.18650162611,0.0065699999999999995,False,,False,,,,,33
2532.324,3.2358335570002055,-0.91162109375,0.322265625,-0.018798828125,-7.206106870229007,1.618320610687023,8.946564885496183,38589,-143,5,-0.4995354666152356,19177.18650162611,0.0065699999999999995,False,,False,,,,,33
2532.324,3.237834475999989,-0.91162109375,0.322265625,-0.018798828125,-7.206106870229007,1.618320610687023,8.946564885496183,38589,-143,5,-0.4995354666152356,19177.18650162611,0.0065699999999999995,False,,False,,,,,33
2532.329,3.23983595000027,-0.931884765625,0.336669921875,-0.0205078125,-5.129770992366412,2.3206106870229006,9.923664122137405,38558,-140,0,-0.5761651052871106,19176.790020386656,0.0,False,,False,,,,,33
2532.329,3.2418351830001484,-0.931884765625,0.336669921875,-0.0205078125,-5.129770992366412,2.3206106870229006,9.923664122137405,38558,-140,0,-0.5761651052871106,19176.790020386656,0.0,False,,False,,,,,33
2532.334,3.243836676000228,-0.904052734375,0.338623046875,-0.02978515625,-5.435114503816794,2.687022900763359,10.717557251908396,38522,-156,0,-0.6651543630996106,19176.238812178944,0.0,False,,False,,,,,33
2532.334,3.2458374269999695,-0.904052734375,0.338623046875,-0.02978515625,-5.435114503816794,2.687022900763359,10.717557251908396,38522,-156,0,-0.6651543630996106,19176.238812178944,0.0,False,,False,,,,,33
2532.334,3.2478391419999753,-0.904052734375,0.338623046875,-0.02978515625,-5.435114503816794,2.687022900763359,10.717557251908396,38522,-156,0,-0.6651543630996106,19176.238812178944,0.0,False,,False,,,,,33
2532.339,3.249841227000161,-0.933837890625,0.32275390625,-0.025634765625,-3.2061068702290076,1.4961832061068703,9.618320610687023,38488,-145,2,-0.7491997732558606,19175.553521071906,0.002628,False,,False,,,,,33
2532.339,3.251842404999934,-0.933837890625,0.32275390625,-0.025634765625,-3.2061068702290076,1.4961832061068703,9.618320610687023,38488,-145,2,-0.7491997732558606,19175.553521071906,0.002628,False,,False,,,,,33
2532.344,3.2538441940000666,-0.92333984375,0.29931640625,-0.02001953125,-3.9083969465648853,1.83206106870229,10.045801526717558,38449,-166,0,-0.8456048025527356,19174.75516281502,0.0,False,,False,,,,,33
2532.344,3.2558452419998503,-0.92333984375,0.29931640625,-0.02001953125,-3.9083969465648853,1.83206106870229,10.045801526717558,38449,-166,0,-0.8456048025527356,19174.75516281502,0.0,False,,False,,,,,33
2532.344,3.2578466600002685,-0.92333984375,0.29931640625,-0.02001953125,-3.9083969465648853,1.83206106870229,10.045801526717558,38449,-166,0,-0.8456048025527356,19174.75516281502,0.0,False,,False,,,,,33
2532.349,3.2598489669999253,-0.9482421875,0.32763671875,-0.00146484375,-3.541984732824427,3.4198473282442747,11.450381679389313,38410,-174,-1,-0.9420098318496106,19173.859388372657,-0.001314,False,,False,,,,,33
2532.349,3.261849497000185,-0.9482421875,0.32763671875,-0.00146484375,-3.541984732824427,3.4198473282442747,11.450381679389313,38410,-174,-1,-0.9420098318496106,19173.859388372657,-0.001314,False,,False,,,,,33
2532.3540000000003,3.2638509150001482,-0.92626953125,0.28369140625,-0.018798828125,-3.236641221374046,2.0763358778625953,9.16030534351145,38374,-159,-2,-1.0309990896621106,19172.89145471789,-0.002628,False,,False,,,,,33
2532.3540000000003,3.2658520370000588,-0.92626953125,0.28369140625,-0.018798828125,-3.236641221374046,2.0763358778625953,9.16030534351145,38374,-159,-2,-1.0309990896621106,19172.89145471789,-0.002628,False,,False,,,,,33
2532.3540000000003,3.267854029999853,-0.92626953125,0.28369140625,-0.018798828125,-3.236641221374046,2.0763358778625953,9.16030534351145,38374,-159,-2,-1.0309990896621106,19172.89145471789,-0.002628,False,,False,,,,,33
2532.359,3.2698557819999223,-0.973388671875,0.31689453125,0.002685546875,0.0,2.381679389312977,9.282442748091603,38345,-133,0,-1.1026848806777356,19171.900409444712,0.0,False,,False,,,,,33
2532.359,3.271857311000076,-0.973388671875,0.31689453125,0.002685546875,0.0,2.381679389312977,9.282442748091603,38345,-133,0,-1.1026848806777356,19171.900409444712,0.0,False,,False,,,,,33
2532.364,3.273858488999849,-0.974365234375,0.28857421875,0.00244140625,1.5572519083969465,0.8244274809160305,6.900763358778626,38320,-109,0,-1.1644829763808606,19170.94197314387,0.0,False,,False,,,,,33
2532.364,3.27585996300013,-0.974365234375,0.28857421875,0.00244140625,1.5572519083969465,0.8244274809160305,6.900763358778626,38320,-109,0,-1.1644829763808606,19170.94197314387,0.0,False,,False,,,,,33
2532.364,3.2778619919999983,-0.974365234375,0.28857421875,0.00244140625,1.5572519083969465,0.8244274809160305,6.900763358778626,38320,-109,0,-1.1644829763808606,19170.94197314387,0.0,False,,False,,,,,33
2532.369,3.2798631509999723,-0.962646484375,0.3076171875,0.003173828125,1.3129770992366412,1.648854961832061,7.938931297709924,38298,-100,0,-1.2188653005996106,19170.056950149166,0.0,False,,False,,,,,33
2532.369,3.2818640700002106,-0.962646484375,0.3076171875,0.003173828125,1.3129770992366412,1.648854961832061,7.938931297709924,38298,-100,0,-1.2188653005996106,19170.056950149166,0.0,False,,False,,,,,33
2532.3740000000003,3.2838658400000895,-0.947265625,0.3095703125,0.0029296875,-1.7709923664122136,1.0381679389312977,7.969465648854961,38271,-121,-2,-1.2856072439589856,19169.25516102753,-0.002628,False,,False,,,,,33
2532.3740000000003,3.2858663319998413,-0.947265625,0.3095703125,0.0029296875,-1.7709923664122136,1.0381679389312977,7.969465648854961,38271,-121,-2,-1.2856072439589856,19169.25516102753,-0.002628,False,,False,,,,,33
2532.3740000000003,3.2879353429998446,-0.947265625,0.3095703125,0.0029296875,-1.7709923664122136,1.0381679389312977,7.969465648854961,38271,-121,-2,-1.2856072439589856,19169.25516102753,-0.002628,False,,False,,,,,33
2532.379,3.2899357979999877,-0.96533203125,0.298095703125,0.000244140625,-0.8549618320610687,0.42748091603053434,6.442748091603053,38253,-95,-3,-1.3301018728652356,19168.53825009119,-0.003942,False,,False,,,,,33
2532.379,3.2919369020000886,-0.96533203125,0.298095703125,0.000244140625,-0.8549618320610687,0.42748091603053434,6.442748091603053,38253,-95,-3,-1.3301018728652356,19168.53825009119,-0.003942,False,,False,,,,,33
2532.384,3.293938412999978,-0.956298828125,0.313232421875,-0.007080078125,3.4198473282442747,-0.24427480916030533,5.893129770992366,38238,-67,-1,-1.3671807302871106,19167.9314313795,-0.001314,False,,False,,,,,33
2532.384,3.295939793999878,-0.956298828125,0.313232421875,-0.007080078125,3.4198473282442747,-0.24427480916030533,5.893129770992366,38238,-67,-1,-1.3671807302871106,19167.9314313795,-0.001314,False,,False,,,,,33
2532.384,3.2979420269998627,-0.956298828125,0.313232421875,-0.007080078125,3.4198473282442747,-0.24427480916030533,5.893129770992366,38238,-67,-1,-1.3671807302871106,19167.9314313795,-0.001314,False,,False,,,,,33
2532.389,3.2999432599999636,-0.960693359375,0.301025390625,-0.005126953125,3.114503816793893,-0.732824427480916,5.251908396946565,38222,-72,-3,-1.4067315115371106,19167.4506377267,-0.003942,False,,False,,,,,33
2532.389,3.301944105000075,-0.960693359375,0.301025390625,-0.005126953125,3.114503816793893,-0.732824427480916,5.251908396946565,38222,-72,-3,-1.4067315115371106,19167.4506377267,-0.003942,False,,False,,,,,33
2532.3940000000002,3.303945949000081,-0.974853515625,0.287353515625,-0.00732421875,4.702290076335878,-0.8244274809160305,3.847328244274809,38213,-34,-2,-1.4289788259902356,19167.096639093757,-0.002628,False,,False,,,,,33
2532.3940000000002,3.3059480530000656,-0.974853515625,0.287353515625,-0.00732421875,4.702290076335878,-0.8244274809160305,3.847328244274809,38213,-34,-2,-1.4289788259902356,19167.096639093757,-0.002628,False,,False,,,,,33
2532.3940000000002,3.3079510820002724,-0.974853515625,0.287353515625,-0.00732421875,4.702290076335878,-0.8244274809160305,3.847328244274809,38213,-34,-2,-1.4289788259902356,19167.096639093757,-0.002628,False,,False,,,,,33
2532.399,3.309950426999876,-0.9794921875,0.282958984375,-0.00927734375,6.961832061068702,-1.0076335877862594,2.4122137404580153,38213,-1,0,-1.4289788259902356,19166.89331030413,0.0,False,,False,,,,,33
2532.399,3.3119516229999135,-0.9794921875,0.282958984375,-0.00927734375,6.961832061068702,-1.0076335877862594,2.4122137404580153,38213,-1,0,-1.4289788259902356,19166.89331030413,0.0,False,,False,,,,,33
2532.404,3.3139536710000357,-0.9580078125,0.28515625,-0.01220703125,6.045801526717557,-1.4961832061068703,1.8931297709923662,38212,-5,-2,-1.4314507498183606,19166.862037217514,-0.002628,False,,False,,,,,33
2532.404,3.315954645000147,-0.9580078125,0.28515625,-0.01220703125,6.045801526717557,-1.4961832061068703,1.8931297709923662,38212,-5,-2,-1.4314507498183606,19166.862037217514,-0.002628,False,,False,,,,,33
2532.404,3.317961748000016,-0.9580078125,0.28515625,-0.01220703125,6.045801526717557,-1.4961832061068703,1.8931297709923662,38212,-5,-2,-1.4314507498183606,19166.862037217514,-0.002628,False,,False,,,,,33
2532.409,3.31996048100018,-0.97119140625,0.30615234375,-0.010498046875,5.648854961832061,-0.6412213740458015,1.9541984732824427,38213,0,-2,-1.4289788259902356,19166.991373584275,-0.002628,False,,False,,,,,33
2532.409,3.321959918000175,-0.97119140625,0.30615234375,-0.010498046875,5.648854961832061,-0.6412213740458015,1.9541984732824427,38213,0,-2,-1.4289788259902356,19166.991373584275,-0.002628,False,,False,,,,,33
2532.414,3.3239623180002127,-0.957275390625,0.31201171875,-0.01318359375,5.49618320610687,-0.3969465648854962,2.198473282442748,38213,-3,-1,-1.4289788259902356,19167.25687657993,-0.001314,False,,False,,,,,33
2532.414,3.325962254999922,-0.957275390625,0.31201171875,-0.01318359375,5.49618320610687,-0.3969465648854962,2.198473282442748,38213,-3,-1,-1.4289788259902356,19167.25687657993,-0.001314,False,,False,,,,,33
2532.414,3.3279635630001394,-0.957275390625,0.31201171875,-0.01318359375,5.49618320610687,-0.3969465648854962,2.198473282442748,38213,-3,-1,-1.4289788259902356,19167.25687657993,-0.001314,False,,False,,,,,33
2532.419,3.3299650919998385,-0.95361328125,0.322265625,-0.016357421875,6.076335877862595,-0.3053435114503817,2.3206106870229006,38213,0,0,-1.4289788259902356,19167.632529515955,0.0,False,,False,,,,,33
2532.419,3.331966251000267,-0.95361328125,0.322265625,-0.016357421875,6.076335877862595,-0.3053435114503817,2.3206106870229006,38213,0,0,-1.4289788259902356,19167.632529515955,0.0,False,,False,,,,,33
2532.424,3.3339692439999453,-0.94287109375,0.325439453125,-0.0185546875,7.32824427480916,-0.5190839694656488,2.5343511450381677,38213,0,0,-1.4289788259902356,19168.093165481914,0.0,False,,False,,,,,33
2532.424,3.335969494999972,-0.94287109375,0.325439453125,-0.0185546875,7.32824427480916,-0.5190839694656488,2.5343511450381677,38213,0,0,-1.4289788259902356,19168.093165481914,0.0,False,,False,,,,,33
2532.424,3.3379708580000624,-0.94287109375,0.325439453125,-0.0185546875,7.32824427480916,-0.5190839694656488,2.5343511450381677,38213,0,0,-1.4289788259902356,19168.093165481914,0.0,False,,False,,,,,33
2532.429,3.3399725170002057,-0.940673828125,0.325927734375,-0.01611328125,7.8473282442748085,-0.3053435114503817,2.564885496183206,38213,3,0,-1.4289788259902356,19168.61827456784,0.0,False,,False,,,,,33
2532.429,3.341973510000116,-0.940673828125,0.325927734375,-0.01611328125,7.8473282442748085,-0.3053435114503817,2.564885496183206,38213,3,0,-1.4289788259902356,19168.61827456784,0.0,False,,False,,,,,33
2532.434,3.34397613200008,-0.93798828125,0.323486328125,-0.012451171875,8.427480916030534,-0.48854961832061067,2.564885496183206,38212,0,-2,-1.4314507498183606,19169.187961744843,-0.002628,False,,False,,,,,33
2532.434,3.345976513000096,-0.93798828125,0.323486328125,-0.012451171875,8.427480916030534,-0.48854961832061067,2.564885496183206,38212,0,-2,-1.4314507498183606,19169.187961744843,-0.002628,False,,False,,,,,33
2532.434,3.347978561000218,-0.93798828125,0.323486328125,-0.012451171875,8.427480916030534,-0.48854961832061067,2.564885496183206,38212,0,-2,-1.4314507498183606,19169.187961744843,-0.002628,False,,False,,,,,33
2532.439,3.3499800720001076,-0.94482421875,0.3212890625,-0.010986328125,8.67175572519084,-0.366412213740458,2.351145038167939,38211,-3,1,-1.4339226736464856,19169.783134977646,0.001314,False,,False,,,,,33
2532.439,3.3519816940001874,-0.94482421875,0.3212890625,-0.010986328125,8.67175572519084,-0.366412213740458,2.351145038167939,38211,-3,1,-1.4339226736464856,19169.783134977646,0.001314,False,,False,,,,,33
2532.444,3.3539834279999923,-0.9384765625,0.324951171875,-0.0107421875,8.427480916030534,-0.21374045801526717,2.748091603053435,38209,-10,4,-1.4388665213027356,19170.387441555133,0.005256,False,,False,,,,,33
2532.444,3.355984883000019,-0.9384765625,0.324951171875,-0.0107421875,8.427480916030534,-0.21374045801526717,2.748091603053435,38209,-10,4,-1.4388665213027356,19170.387441555133,0.005256,False,,False,,,,,33
2532.444,3.357986727000025,-0.9384765625,0.324951171875,-0.0107421875,8.427480916030534,-0.21374045801526717,2.748091603053435,38209,-10,4,-1.4388665213027356,19170.387441555133,0.005256,False,,False,,,,,33
2532.449,3.359987387000274,-0.939453125,0.3271484375,-0.010009765625,8.51908396946565,-0.21374045801526717,2.900763358778626,38207,-11,0,-1.4438103689589856,19170.987058962706,0.0,False,,False,,,,,33
2532.449,3.3619890270001633,-0.939453125,0.3271484375,-0.010009765625,8.51908396946565,-0.21374045801526717,2.900763358778626,38207,-11,0,-1.4438103689589856,19170.987058962706,0.0,False,,False,,,,,33
2532.454,3.363990742000169,-0.93701171875,0.330078125,-0.00927734375,9.007633587786259,-0.549618320610687,2.8396946564885495,38203,-17,0,-1.4536980642714856,19171.568692671324,0.0,False,,False,,,,,33
2532.454,3.366002438000123,-0.93701171875,0.330078125,-0.00927734375,9.007633587786259,-0.549618320610687,2.8396946564885495,38203,-17,0,-1.4536980642714856,19171.568692671324,0.0,False,,False,,,,,33
2532.454,3.368003819000023,-0.93701171875,0.330078125,-0.00927734375,9.007633587786259,-0.549618320610687,2.8396946564885495,38203,-17,0,-1.4536980642714856,19171.568692671324,0.0,False,,False,,,,,33
2532.459,3.3700043859998914,-0.93603515625,0.33203125,-0.005615234375,9.31297709923664,-0.732824427480916,3.0229007633587783,38198,-29,0,-1.4660576834121106,19172.117892274433,0.0,False,,False,,,,,33
2532.459,3.372006027000225,-0.93603515625,0.33203125,-0.005615234375,9.31297709923664,-0.732824427480916,3.0229007633587783,38198,-29,0,-1.4660576834121106,19172.117892274433,0.0,False,,False,,,,,33
2532.464,3.3740078149999135,-0.924072265625,0.3427734375,-0.009033203125,7.755725190839694,-0.5801526717557252,4.6106870229007635,38189,-41,0,-1.4883049978652356,19172.617658508316,0.0,False,,False,,,,,33
2532.464,3.376008641000226,-0.924072265625,0.3427734375,-0.009033203125,7.755725190839694,-0.5801526717557252,4.6106870229007635,38189,-41,0,-1.4883049978652356,19172.617658508316,0.0,False,,False,,,,,33
2532.464,3.3780098370002634,-0.924072265625,0.3427734375,-0.009033203125,7.755725190839694,-0.5801526717557252,4.6106870229007635,38189,-41,0,-1.4883049978652356,19172.617658508316,0.0,False,,False,,,,,33
2532.469,3.3800110520001,-0.907958984375,0.36279296875,-0.009765625,4.458015267175572,0.0916030534351145,6.961832061068702,38166,-104,-1,-1.5451592459121106,19173.02761845385,-0.001314,False,,False,,,,,33
2532.469,3.3820129149999048,-0.907958984375,0.36279296875,-0.009765625,4.458015267175572,0.0916030534351145,6.961832061068702,38166,-104,-1,-1.5451592459121106,19173.02761845385,-0.001314,False,,False,,,,,33
2532.474,3.3840156480000587,-0.888671875,0.360595703125,-0.01171875,1.4961832061068703,0.12213740458015267,7.8473282442748085,38130,-168,1,-1.6341485037246106,19173.275882551352,0.001314,False,,False,,,,,33
2532.474,3.386016732999906,-0.888671875,0.360595703125,-0.01171875,1.4961832061068703,0.12213740458015267,7.8473282442748085,38130,-168,1,-1.6341485037246106,19173.275882551352,0.001314,False,,False,,,,,33
2532.474,3.3880170960001124,-0.888671875,0.360595703125,-0.01171875,1.4961832061068703,0.12213740458015267,7.8473282442748085,38130,-168,1,-1.6341485037246106,19173.275882551352,0.001314,False,,False,,,,,33
2532.4790000000003,3.3900187740000547,-0.909912109375,0.38134765625,-0.0078125,2.8091603053435112,0.3969465648854962,9.099236641221374,38086,-199,2,-1.7429131521621106,19173.29923711782,0.002628,False,,False,,,,,33
2532.4790000000003,3.392021248000219,-0.909912109375,0.38134765625,-0.0078125,2.8091603053435112,0.3969465648854962,9.099236641221374,38086,-199,2,-1.7429131521621106,19173.29923711782,0.002628,False,,False,,,,,33
2532.484,3.394026147000204,-0.90478515625,0.3974609375,-0.011474609375,2.8702290076335877,0.5801526717557252,11.786259541984732,38038,-217,1,-1.8615654959121106,19173.074876589304,0.001314,False,,False,,,,,32
2532.484,3.3960296579998612,-0.90478515625,0.3974609375,-0.011474609375,2.8702290076335877,0.5801526717557252,11.786259541984732,38038,-217,1,-1.8615654959121106,19173.074876589304,0.001314,False,,False,,,,,32
2532.484,3.3980307990000256,-0.90478515625,0.3974609375,-0.011474609375,2.8702290076335877,0.5801526717557252,11.786259541984732,38038,-217,1,-1.8615654959121106,19173.074876589304,0.001314,False,,False,,,,,32
2532.489,3.4000314579998303,-0.865478515625,0.355712890625,-0.03076171875,2.2900763358778624,0.366412213740458,11.786259541984732,37981,-249,3,-2.0024651541152356,19172.601621180187,0.003942,False,,False,,,,,32
2532.489,3.402030246999857,-0.865478515625,0.355712890625,-0.03076171875,2.2900763358778624,0.366412213740458,11.786259541984732,37981,-249,3,-2.0024651541152356,19172.601621180187,0.003942,False,,False,,,,,32
2532.494,3.4040346100000534,-0.901611328125,0.37158203125,-0.011962890625,2.4427480916030535,1.282442748091603,12.458015267175572,37921,-257,3,-2.1507805838027356,19171.882088854916,0.003942,False,,False,,,,,32
2532.494,3.40603715799989,-0.901611328125,0.37158203125,-0.011962890625,2.4427480916030535,1.282442748091603,12.458015267175572,37921,-257,3,-2.1507805838027356,19171.882088854916,0.003942,False,,False,,,,,32
2532.494,3.4080370020001283,-0.901611328125,0.37158203125,-0.011962890625,2.4427480916030535,1.282442748091603,12.458015267175572,37921,-257,3,-2.1507805838027356,19171.882088854916,0.003942,False,,False,,,,,32
2532.4990000000003,3.4100410320002084,-0.90283203125,0.36328125,-0.01416015625,4.580152671755725,-0.030534351145038167,12.916030534351144,37861,-267,2,-2.2990960134902356,19170.939944113186,0.002628,False,,False,,,,,32
2532.4990000000003,3.412040765000256,-0.90283203125,0.36328125,-0.01416015625,4.580152671755725,-0.030534351145038167,12.916030534351144,37861,-267,2,-2.2990960134902356,19170.939944113186,0.002628,False,,False,,,,,32
2532.504,3.4140413869999975,-0.895751953125,0.32373046875,-0.017333984375,4.0,-0.0916030534351145,12.274809160305344,37798,-276,2,-2.4548272146621106,19169.814337915144,0.002628,False,,False,,,,,32
2532.504,3.41604184300013,-0.895751953125,0.32373046875,-0.017333984375,4.0,-0.0916030534351145,12.274809160305344,37798,-276,2,-2.4548272146621106,19169.814337915144,0.002628,False,,False,,,,,32
2532.504,3.418044649999956,-0.895751953125,0.32373046875,-0.017333984375,4.0,-0.0916030534351145,12.274809160305344,37798,-276,2,-2.4548272146621106,19169.814337915144,0.002628,False,,False,,,,,32
2532.509,3.4200461609998456,-0.93359375,0.322265625,-0.0087890625,6.381679389312977,0.061068702290076333,11.358778625954198,37737,-264,1,-2.6056145681777356,19168.54428549045,0.001314,False,,False,,,,,32
2532.509,3.4220471530002214,-0.93359375,0.322265625,-0.0087890625,6.381679389312977,0.061068702290076333,11.358778625954198,37737,-264,1,-2.6056145681777356,19168.54428549045,0.001314,False,,False,,,,,32
2532.514,3.424051201000111,-0.939697265625,0.32177734375,-0.009765625,8.946564885496183,-0.6412213740458015,11.053435114503817,37685,-235,0,-2.7341546072402356,19167.18960927213,0.0,False,,False,,,,,33
2532.514,3.426049748999958,-0.939697265625,0.32177734375,-0.009765625,8.946564885496183,-0.6412213740458015,11.053435114503817,37685,-235,0,-2.7341546072402356,19167.18960927213,0.0,False,,False,,,,,33
2532.514,3.4280560940001124,-0.939697265625,0.32177734375,-0.009765625,8.946564885496183,-0.6412213740458015,11.053435114503817,37685,-235,0,-2.7341546072402356,19167.18960927213,0.0,False,,False,,,,,33
2532.5190000000002,3.4300539750001917,-0.92724609375,0.274658203125,-0.020263671875,10.076335877862595,-1.8625954198473282,8.977099236641221,37639,-202,0,-2.8478631033339856,19165.830265491837,0.0,False,,False,,,,,33
2532.5190000000002,3.4320577270000285,-0.92724609375,0.274658203125,-0.020263671875,10.076335877862595,-1.8625954198473282,8.977099236641221,37639,-202,0,-2.8478631033339856,19165.830265491837,0.0,False,,False,,,,,33
2532.524,3.434058145000108,-0.97021484375,0.262451171875,-0.010498046875,12.6412213740458,-3.3587786259541983,6.412213740458015,37604,-150,-2,-2.9343804373183606,19164.544002694915,-0.002628,False,,False,,,,,33
2532.524,3.4360631380000086,-0.97021484375,0.262451171875,-0.010498046875,12.6412213740458,-3.3587786259541983,6.412213740458015,37604,-150,-2,-2.9343804373183606,19164.544002694915,-0.002628,False,,False,,,,,33
2532.524,3.4380670929999724,-0.97021484375,0.262451171875,-0.010498046875,12.6412213740458,-3.3587786259541983,6.412213740458015,37604,-150,-2,-2.9343804373183606,19164.544002694915,-0.002628,False,,False,,,,,33
2532.529,3.4400701220001793,-0.962158203125,0.2880859375,-0.0029296875,11.908396946564885,-2.0763358778625953,7.175572519083969,37573,-133,-1,-3.0110100759902356,19163.39485183276,-0.001314,False,,False,,,,,33
2532.529,3.4420727450001323,-0.962158203125,0.2880859375,-0.0029296875,11.908396946564885,-2.0763358778625953,7.175572519083969,37573,-133,-1,-3.0110100759902356,19163.39485183276,-0.001314,False,,False,,,,,33
2532.534,3.444076458999916,-0.961669921875,0.26611328125,-0.00390625,10.687022900763358,-3.7557251908396947,5.709923664122138,37542,-126,-3,-3.0876397146621106,19162.411155573165,-0.003942,False,,False,,,,,33
2532.534,3.4460791179999433,-0.961669921875,0.26611328125,-0.00390625,10.687022900763358,-3.7557251908396947,5.709923664122138,37542,-126,-3,-3.0876397146621106,19162.411155573165,-0.003942,False,,False,,,,,33
2532.539,3.448080611000023,-0.98681640625,0.293212890625,-0.00048828125,11.419847328244275,-2.9618320610687023,6.290076335877862,37511,-136,-1,-3.1642693533339856,19161.587387419542,-0.001314,False,,False,,,,,33
2532.539,3.4500809740002296,-0.98681640625,0.293212890625,-0.00048828125,11.419847328244275,-2.9618320610687023,6.290076335877862,37511,-136,-1,-3.1642693533339856,19161.587387419542,-0.001314,False,,False,,,,,33
2532.539,3.452086707000035,-0.98681640625,0.293212890625,-0.00048828125,11.419847328244275,-2.9618320610687023,6.290076335877862,37511,-136,-1,-3.1642693533339856,19161.587387419542,-0.001314,False,,False,,,,,33
2532.544,3.4540842920000614,-0.9765625,0.2880859375,-0.0078125,9.465648854961831,-3.6030534351145036,5.801526717557252,37480,-136,0,-3.2408989920058606,19160.90944185165,0.0,False,,False,,,,,33
2532.544,3.456084135999845,-0.9765625,0.2880859375,-0.0078125,9.465648854961831,-3.6030534351145036,5.801526717557252,37480,-136,0,-3.2408989920058606,19160.90944185165,0.0,False,,False,,,,,33
2532.544,3.4580859440002314,-0.9765625,0.2880859375,-0.0078125,9.465648854961831,-3.6030534351145036,5.801526717557252,37480,-136,0,-3.2408989920058606,19160.90944185165,0.0,False,,False,,,,,33
2532.549,3.4600864730000467,-0.973876953125,0.314697265625,-0.01171875,10.534351145038167,-2.3206106870229006,7.022900763358779,37451,-123,-1,-3.3125847830214856,19160.36697850324,-0.001314,False,,False,,,,,33
2532.549,3.4620885770000314,-0.973876953125,0.314697265625,-0.01171875,10.534351145038167,-2.3206106870229006,7.022900763358779,37451,-123,-1,-3.3125847830214856,19160.36697850324,-0.001314,False,,False,,,,,33
2532.554,3.464092606000122,-0.94921875,0.297119140625,-0.025146484375,8.67175572519084,-2.6564885496183206,6.900763358778626,37420,-144,1,-3.3892144216933606,19159.949377902998,0.001314,False,,False,,,,,33
2532.554,3.4660939880000114,-0.94921875,0.297119140625,-0.025146484375,8.67175572519084,-2.6564885496183206,6.900763358778626,37420,-144,1,-3.3892144216933606,19159.949377902998,0.001314,False,,False,,,,,33
2532.554,3.4680935360001968,-0.94921875,0.297119140625,-0.025146484375,8.67175572519084,-2.6564885496183206,6.900763358778626,37420,-144,1,-3.3892144216933606,19159.949377902998,0.001314,False,,False,,,,,33
2532.559,3.4700946389998535,-0.982421875,0.297607421875,-0.01904296875,9.374045801526718,-2.4427480916030535,6.778625954198473,37390,-139,-1,-3.4633721365371106,19159.64056925947,-0.001314,False,,False,,,,,33
2532.559,3.472095705999891,-0.982421875,0.297607421875,-0.01904296875,9.374045801526718,-2.4427480916030535,6.778625954198473,37390,-139,-1,-3.4633721365371106,19159.64056925947,-0.001314,False,,False,,,,,33
2532.564,3.4740976240000236,-0.955078125,0.290771484375,-0.03173828125,5.893129770992366,-1.1908396946564885,7.32824427480916,37350,-169,0,-3.5622490896621106,19159.409407836774,0.0,False,,False,,,,,33
2532.564,3.4761032460000933,-0.955078125,0.290771484375,-0.03173828125,5.893129770992366,-1.1908396946564885,7.32824427480916,37350,-169,0,-3.5622490896621106,19159.409407836774,0.0,False,,False,,,,,33
2532.564,3.4781403120000505,-0.955078125,0.290771484375,-0.03173828125,5.893129770992366,-1.1908396946564885,7.32824427480916,37350,-169,0,-3.5622490896621106,19159.409407836774,0.0,False,,False,,,,,33
2532.569,3.480140675000257,-0.980712890625,0.318115234375,-0.02734375,8.091603053435113,0.916030534351145,8.183206106870228,37316,-144,2,-3.6462944998183606,19159.223323466973,0.002628,False,,False,,,,,33
2532.569,3.482138390000273,-0.980712890625,0.318115234375,-0.02734375,8.091603053435113,0.916030534351145,8.183206106870228,37316,-144,2,-3.6462944998183606,19159.223323466973,0.002628,False,,False,,,,,33
2532.574,3.4841402709998874,-0.954833984375,0.284423828125,-0.042724609375,9.038167938931297,0.3969465648854962,6.259541984732824,37288,-122,5,-3.7155083670058606,19159.09199655906,0.0065699999999999995,False,,False,,,,,33
2532.574,3.486141745000168,-0.954833984375,0.284423828125,-0.042724609375,9.038167938931297,0.3969465648854962,6.259541984732824,37288,-122,5,-3.7155083670058606,19159.09199655906,0.0065699999999999995,False,,False,,,,,33
2532.579,3.4881439599998885,-0.99853515625,0.286376953125,-0.026611328125,12.580152671755725,0.21374045801526717,4.9465648854961835,37269,-78,6,-3.7624749197402356,19159.056757696642,0.007884,False,,False,,,,,33
2532.579,3.4901449520002643,-0.99853515625,0.286376953125,-0.026611328125,12.580152671755725,0.21374045801526717,4.9465648854961835,37269,-78,6,-3.7624749197402356,19159.056757696642,0.007884,False,,False,,,,,33
2532.579,3.4921464260000903,-0.99853515625,0.286376953125,-0.026611328125,12.580152671755725,0.21374045801526717,4.9465648854961835,37269,-78,6,-3.7624749197402356,19159.056757696642,0.007884,False,,False,,,,,33
2532.584,3.4941478079999797,-0.9716796875,0.291015625,-0.020263671875,8.946564885496183,1.8625954198473282,5.526717557251908,37249,-89,2,-3.8119133963027356,19159.143654080726,0.002628,False,,False,,,,,33
2532.584,3.4961487079999642,-0.9716796875,0.291015625,-0.020263671875,8.946564885496183,1.8625954198473282,5.526717557251908,37249,-89,2,-3.8119133963027356,19159.143654080726,0.002628,False,,False,,,,,33
2532.589,3.4981507369998326,-0.97802734375,0.287353515625,-0.017822265625,8.458015267175572,2.5038167938931295,4.305343511450381,37227,-94,1,-3.8662957205214856,19159.34049353519,0.001314,False,,False,,,,,33
2532.589,3.5001518409999335,-0.97802734375,0.287353515625,-0.017822265625,8.458015267175572,2.5038167938931295,4.305343511450381,37227,-94,1,-3.8662957205214856,19159.34049353519,0.001314,False,,False,,,,,33
2532.589,3.502152944000045,-0.97802734375,0.287353515625,-0.017822265625,8.458015267175572,2.5038167938931295,4.305343511450381,37227,-94,1,-3.8662957205214856,19159.34049353519,0.001314,False,,False,,,,,33
2532.594,3.5041550290002306,-0.98388671875,0.305908203125,-0.0185546875,11.022900763358779,2.717557251908397,3.66412213740458,37213,-67,0,-3.9009026541152356,19159.63189525779,0.0,False,,False,,,,,33
2532.594,3.5061564289999296,-0.98388671875,0.305908203125,-0.0185546875,11.022900763358779,2.717557251908397,3.66412213740458,37213,-67,0,-3.9009026541152356,19159.63189525779,0.0,False,,False,,,,,33
2532.599,3.508158977000221,-0.9716796875,0.312255859375,-0.0185546875,11.267175572519083,2.381679389312977,3.7251908396946565,37203,-46,2,-3.9256218923964856,19160.03047038793,0.002628,False,,False,,,,,33
2532.599,3.510159025000121,-0.9716796875,0.312255859375,-0.0185546875,11.267175572519083,2.381679389312977,3.7251908396946565,37203,-46,2,-3.9256218923964856,19160.03047038793,0.002628,False,,False,,,,,33
2532.599,3.5121600729999045,-0.9716796875,0.312255859375,-0.0185546875,11.267175572519083,2.381679389312977,3.7251908396946565,37203,-46,2,-3.9256218923964856,19160.03047038793,0.002628,False,,False,,,,,33
2532.6040000000003,3.5141625100000056,-0.950927734375,0.335205078125,-0.01904296875,7.8473282442748085,2.8091603053435112,5.343511450381679,37183,-79,2,-3.9750603689589856,19160.523738104646,0.002628,False,,False,,,,,33
2532.6040000000003,3.516162892000011,-0.950927734375,0.335205078125,-0.01904296875,7.8473282442748085,2.8091603053435112,5.343511450381679,37183,-79,2,-3.9750603689589856,19160.523738104646,0.002628,False,,False,,,,,33
2532.609,3.518165199000123,-0.95849609375,0.3291015625,-0.01513671875,8.946564885496183,2.16793893129771,4.488549618320611,37163,-86,3,-4.024498845521485,19161.06048682271,0.003942,False,,False,,,,,33
2532.609,3.520165525000266,-0.95849609375,0.3291015625,-0.01513671875,8.946564885496183,2.16793893129771,4.488549618320611,37163,-86,3,-4.024498845521485,19161.06048682271,0.003942,False,,False,,,,,33
2532.609,3.522167073000219,-0.95849609375,0.3291015625,-0.01513671875,8.946564885496183,2.16793893129771,4.488549618320611,37163,-86,3,-4.024498845521485,19161.06048682271,0.003942,False,,False,,,,,33
2532.614,3.5241687319999073,-0.966552734375,0.327392578125,-0.015625,11.053435114503817,1.9541984732824427,4.183206106870228,37145,-78,2,-4.068993474427735,19161.61153727862,0.002628,False,,False,,,,,33
2532.614,3.5261696689999553,-0.966552734375,0.327392578125,-0.015625,11.053435114503817,1.9541984732824427,4.183206106870228,37145,-78,2,-4.068993474427735,19161.61153727862,0.002628,False,,False,,,,,33
2532.619,3.5281719390000035,-0.94921875,0.335205078125,-0.019287109375,9.465648854961831,2.595419847328244,5.679389312977099,37119,-115,2,-4.133263493958985,19162.15941594705,0.002628,False,,False,,,,,33
2532.619,3.5301730239998506,-0.94921875,0.335205078125,-0.019287109375,9.465648854961831,2.595419847328244,5.679389312977099,37119,-115,2,-4.133263493958985,19162.15941594705,0.002628,False,,False,,,,,33
2532.619,3.5321742020000784,-0.94921875,0.335205078125,-0.019287109375,9.465648854961831,2.595419847328244,5.679389312977099,37119,-115,2,-4.133263493958985,19162.15941594705,0.002628,False,,False,,,,,33
2532.6240000000003,3.5341761939998833,-0.93603515625,0.33935546875,-0.015625,4.6106870229007635,2.8091603053435112,6.961832061068702,37084,-166,2,-4.21978082794336,19162.65552068287,0.002628,False,,False,,,,,33
