state_time,loop_time,accel_x,accel_y,accel_z,gyro_x,gyro_y,gyro_z,motor_angle,motor_velocity,motor_current,hip_angle,hip_velocity,hip_torque_from_current,did_heel_strike,gait_phase,did_toe_off,commanded_current,commanded_position,commanded_torque,commanded_voltage,temperature
1748.4360000000001,1.283129750000171,-0.975341796875,0.221435546875,-0.001953125,1.1603053435114503,0.12213740458015267,0.3969465648854962,7510,-3,4,18.56414794921875,-0.002933724917556608,0.005256,False,,False,,,,,32
1748.4360000000001,1.2851317770000605,-0.975341796875,0.221435546875,-0.001953125,1.1603053435114503,0.12213740458015267,0.3969465648854962,7510,-3,4,18.56414794921875,-0.002933724917556608,0.005256,False,,False,,,,,32
1748.4360000000001,1.2871333420002884,-0.975341796875,0.221435546875,-0.001953125,1.1603053435114503,0.12213740458015267,0.3969465648854962,7510,-3,4,18.56414794921875,-0.002933724917556608,0.005256,False,,False,,,,,32
1748.4360000000001,1.2891356660002202,-0.975341796875,0.221435546875,-0.001953125,1.1603053435114503,0.12213740458015267,0.3969465648854962,7510,-3,4,18.56414794921875,-0.002933724917556608,0.005256,False,,False,,,,,32
1748.4360000000001,1.2911371560003317,-0.975341796875,0.221435546875,-0.001953125,1.1603053435114503,0.12213740458015267,0.3969465648854962,7510,-3,4,18.56414794921875,-0.002933724917556608,0.005256,False,,False,,,,,32
1748.4460000000001,1.2932717749999938,-0.967529296875,0.22705078125,-0.008056640625,1.5877862595419847,0.3053435114503817,0.549618320610687,7510,-2,9,18.56414794921875,-0.002736332290734468,0.011826,False,,False,,,,,32
1748.4460000000001,1.2952685059999567,-0.967529296875,0.22705078125,-0.008056640625,1.5877862595419847,0.3053435114503817,0.549618320610687,7510,-2,9,18.56414794921875,-0.002736332290734468,0.011826,False,,False,,,,,32
1748.451,1.2972725520003223,-0.964111328125,0.229736328125,-0.008056640625,1.648854961832061,0.3969465648854962,0.6106870229007634,7511,1,0,18.566619873046875,-0.0022518456212123625,0.0,False,,False,,,,,32
1748.451,1.29927146800037,-0.964111328125,0.229736328125,-0.008056640625,1.648854961832061,0.3969465648854962,0.6106870229007634,7511,1,0,18.566619873046875,-0.0022518456212123625,0.0,False,,False,,,,,32
1748.4560000000001,1.3012757179999426,-0.963623046875,0.2314453125,-0.00927734375,1.9541984732824427,0.549618320610687,0.7633587786259541,7509,-6,4,18.561676025390625,-0.0018136204004041987,0.005256,False,,False,,,,,32
1748.4560000000001,1.3032746530002441,-0.963623046875,0.2314453125,-0.00927734375,1.9541984732824427,0.549618320610687,0.7633587786259541,7509,-6,4,18.561676025390625,-0.0018136204004041987,0.005256,False,,False,,,,,32
1748.4560000000001,1.3052744400001757,-0.963623046875,0.2314453125,-0.00927734375,1.9541984732824427,0.549618320610687,0.7633587786259541,7509,-6,4,18.561676025390625,-0.0018136204004041987,0.005256,False,,False,,,,,32
1748.461,1.3072811340002772,-0.961669921875,0.230712890625,-0.004638671875,1.83206106870229,0.33587786259541985,0.7938931297709924,7509,-4,3,18.561676025390625,-0.0067919853650895215,0.003942,False,,False,,,,,32
1748.461,1.309279940000124,-0.961669921875,0.230712890625,-0.004638671875,1.83206106870229,0.33587786259541985,0.7938931297709924,7509,-4,3,18.561676025390625,-0.0067919853650895215,0.003942,False,,False,,,,,32
1748.4660000000001,1.3112812270001086,-0.962890625,0.229736328125,-0.0029296875,1.4351145038167938,0.5190839694656488,0.9465648854961831,7509,0,4,18.561676025390625,-0.014442395869168885,0.005256,False,,False,,,,,31
1748.4660000000001,1.3132802909999555,-0.962890625,0.229736328125,-0.0029296875,1.4351145038167938,0.5190839694656488,0.9465648854961831,7509,0,4,18.561676025390625,-0.014442395869168885,0.005256,False,,False,,,,,31
1748.4660000000001,1.3152840410002682,-0.962890625,0.229736328125,-0.0029296875,1.4351145038167938,0.5190839694656488,0.9465648854961831,7509,0,4,18.561676025390625,-0.014442395869168885,0.005256,False,,False,,,,,31
1748.471,1.317284865000147,-0.96240234375,0.230224609375,-0.001708984375,1.2519083969465647,0.48854961832061067,1.1603053435114503,7505,-11,5,18.551788330078125,-0.02779997280303279,0.0065699999999999995,False,,False,,,,,31
1748.471,1.3192832810000255,-0.96240234375,0.230224609375,-0.001708984375,1.2519083969465647,0.48854961832061067,1.1603053435114503,7505,-11,5,18.551788330078125,-0.02779997280303279,0.0065699999999999995,False,,False,,,,,31
1748.476,1.3212868089999574,-0.954345703125,0.236083984375,0.00048828125,-0.366412213740458,0.8854961832061068,2.015267175572519,7501,-25,1,18.541900634765625,-0.06006601053013837,0.001314,False,,False,,,,,31
1748.476,1.323289522000323,-0.954345703125,0.236083984375,0.00048828125,-0.366412213740458,0.8854961832061068,2.015267175572519,7501,-25,1,18.541900634765625,-0.06006601053013837,0.001314,False,,False,,,,,31
1748.476,1.3252880680001908,-0.954345703125,0.236083984375,0.00048828125,-0.366412213740458,0.8854961832061068,2.015267175572519,7501,-25,1,18.541900634765625,-0.06006601053013837,0.001314,False,,False,,,,,31
1748.481,1.3272922810001546,-0.950439453125,0.247802734375,-0.0009765625,-1.4351145038167938,1.099236641221374,3.32824427480916,7491,-46,3,18.517181396484375,-0.1255994771066164,0.003942,False,,False,,,,,31
1748.481,1.329290716000287,-0.950439453125,0.247802734375,-0.0009765625,-1.4351145038167938,1.099236641221374,3.32824427480916,7491,-46,3,18.517181396484375,-0.1255994771066164,0.003942,False,,False,,,,,31
1748.486,1.3312941690001026,-0.943115234375,0.259765625,-0.000732421875,-3.5114503816793894,1.5572519083969465,4.702290076335878,7471,-88,4,18.467742919921875,-0.2574255509942267,0.005256,False,,False,,,,,32
1748.486,1.3332947890003197,-0.943115234375,0.259765625,-0.000732421875,-3.5114503816793894,1.5572519083969465,4.702290076335878,7471,-88,4,18.467742919921875,-0.2574255509942267,0.005256,False,,False,,,,,32
1748.486,1.3352949469999658,-0.943115234375,0.259765625,-0.000732421875,-3.5114503816793894,1.5572519083969465,4.702290076335878,7471,-88,4,18.467742919921875,-0.2574255509942267,0.005256,False,,False,,,,,32
1748.491,1.3372994370001834,-0.93701171875,0.25439453125,-0.00439453125,-3.969465648854962,1.2213740458015268,4.6106870229007635,7454,-74,2,18.42572021484375,-0.4840224469556783,0.002628,False,,False,,,,,32
1748.491,1.3392971870002839,-0.93701171875,0.25439453125,-0.00439453125,-3.969465648854962,1.2213740458015268,4.6106870229007635,7454,-74,2,18.42572021484375,-0.4840224469556783,0.002628,False,,False,,,,,32
1748.496,1.3413054180000472,-0.967041015625,0.2294921875,-0.02099609375,4.763358778625954,0.5801526717557252,1.618320610687023,7447,-26,0,18.408416748046875,-0.77593406407327,0.0,False,,False,,,,,32
1748.496,1.3433030380001583,-0.967041015625,0.2294921875,-0.02099609375,4.763358778625954,0.5801526717557252,1.618320610687023,7447,-26,0,18.408416748046875,-0.77593406407327,0.0,False,,False,,,,,32
1748.496,1.3453030290002062,-0.967041015625,0.2294921875,-0.02099609375,4.763358778625954,0.5801526717557252,1.618320610687023,7447,-26,0,18.408416748046875,-0.77593406407327,0.0,False,,False,,,,,32
1748.501,1.3473066680003285,-0.978515625,0.206298828125,-0.013916015625,6.290076335877862,-0.061068702290076333,0.9465648854961831,7446,-3,0,18.40594482421875,-1.0663725028278204,0.0,False,,False,,,,,32
1748.501,1.3493047510000906,-0.978515625,0.206298828125,-0.013916015625,6.290076335877862,-0.061068702290076333,0.9465648854961831,7446,-3,0,18.40594482421875,-1.0663725028278204,0.0,False,,False,,,,,32
1748.506,1.3513092410003082,-0.979736328125,0.18310546875,-0.002197265625,3.66412213740458,0.15267175572519084,0.6106870229007634,7445,-9,2,18.403472900390625,-1.311979029915533,0.002628,False,,False,,,,,32
1748.506,1.3533091760000389,-0.979736328125,0.18310546875,-0.002197265625,3.66412213740458,0.15267175572519084,0.6106870229007634,7445,-9,2,18.403472900390625,-1.311979029915533,0.002628,False,,False,,,,,32
1748.506,1.3553089260003617,-0.979736328125,0.18310546875,-0.002197265625,3.66412213740458,0.15267175572519084,0.6106870229007634,7445,-9,2,18.403472900390625,-1.311979029915533,0.002628,False,,False,,,,,32
1748.511,1.357313250000061,-0.995361328125,0.1904296875,0.0146484375,0.8854961832061068,0.6717557251908397,0.6106870229007634,7447,3,0,18.408416748046875,-1.5003805311864105,0.0,False,,False,,,,,32
1748.511,1.3593121110002357,-0.995361328125,0.1904296875,0.0146484375,0.8854961832061068,0.6717557251908397,0.6106870229007634,7447,3,0,18.408416748046875,-1.5003805311864105,0.0,False,,False,,,,,32
1748.516,1.3613165460001255,-0.978515625,0.223876953125,0.01220703125,0.3969465648854962,0.6106870229007634,0.5190839694656488,7447,10,1,18.408416748046875,-1.6309996968778633,0.001314,False,,False,,,,,32
1748.516,1.3633144810000886,-0.978515625,0.223876953125,0.01220703125,0.3969465648854962,0.6106870229007634,0.5190839694656488,7447,10,1,18.408416748046875,-1.6309996968778633,0.001314,False,,False,,,,,32
1748.516,1.3653163970002424,-0.978515625,0.223876953125,0.01220703125,0.3969465648854962,0.6106870229007634,0.5190839694656488,7447,10,1,18.408416748046875,-1.6309996968778633,0.001314,False,,False,,,,,32
1748.521,1.3673204430001533,-0.97412109375,0.233642578125,0.00732421875,0.8549618320610687,0.24427480916030533,0.33587786259541985,7447,5,4,18.408416748046875,-1.7131428115510332,0.005256,False,,False,,,,,32
1748.521,1.3693187490002856,-0.97412109375,0.233642578125,0.00732421875,0.8549618320610687,0.24427480916030533,0.33587786259541985,7447,5,4,18.408416748046875,-1.7131428115510332,0.005256,False,,False,,,,,32
1748.526,1.3713221840002916,-0.974853515625,0.234130859375,0.0009765625,1.0687022900763359,0.183206106870229,0.3969465648854962,7445,-8,3,18.403472900390625,-1.760674697654096,0.003942,False,,False,,,,,32
1748.526,1.3733238780000647,-0.974853515625,0.234130859375,0.0009765625,1.0687022900763359,0.183206106870229,0.3969465648854962,7445,-8,3,18.403472900390625,-1.760674697654096,0.003942,False,,False,,,,,32
1748.526,1.3753234800001337,-0.974853515625,0.234130859375,0.0009765625,1.0687022900763359,0.183206106870229,0.3969465648854962,7445,-8,3,18.403472900390625,-1.760674697654096,0.003942,False,,False,,,,,32
1748.531,1.377327248000256,-0.97412109375,0.234619140625,-0.00390625,1.0687022900763359,0.183206106870229,0.6106870229007634,7447,0,1,18.408416748046875,-1.7785421168575972,0.001314,False,,False,,,,,32
1748.531,1.3793253680000817,-0.97412109375,0.234619140625,-0.00390625,1.0687022900763359,0.183206106870229,0.6106870229007634,7447,0,1,18.408416748046875,-1.7785421168575972,0.001314,False,,False,,,,,32
1748.536,1.3813297110000349,-0.974853515625,0.232177734375,-0.0068359375,1.3740458015267174,0.061068702290076333,0.5190839694656488,7446,-1,0,18.40594482421875,-1.7659446357702746,0.0,False,,False,,,,,31
1748.536,1.3833301270001357,-0.974853515625,0.232177734375,-0.0068359375,1.3740458015267174,0.061068702290076333,0.5190839694656488,7446,-1,0,18.40594482421875,-1.7659446357702746,0.0,False,,False,,,,,31
1748.536,1.3853307470003529,-0.974853515625,0.232177734375,-0.0068359375,1.3740458015267174,0.061068702290076333,0.5190839694656488,7446,-1,0,18.40594482421875,-1.7659446357702746,0.0,False,,False,,,,,31
1748.541,1.3873347930002637,-0.973876953125,0.234130859375,-0.006591796875,1.4961832061068703,0.183206106870229,0.15267175572519084,7446,-1,3,18.40594482421875,-1.729815499576734,0.003942,False,,False,,,,,31
1748.541,1.3893327840000893,-0.973876953125,0.234130859375,-0.006591796875,1.4961832061068703,0.183206106870229,0.15267175572519084,7446,-1,3,18.40594482421875,-1.729815499576734,0.003942,False,,False,,,,,31
1748.546,1.391337126000053,-0.9736328125,0.2314453125,-0.009521484375,1.3740458015267174,0.15267175572519084,0.366412213740458,7446,0,-2,18.40594482421875,-1.6762999905704428,-0.002628,False,,False,,,,,31
1748.546,1.393339228000059,-0.9736328125,0.2314453125,-0.009521484375,1.3740458015267174,0.15267175572519084,0.366412213740458,7446,0,-2,18.40594482421875,-1.6762999905704428,-0.002628,False,,False,,,,,31
1748.546,1.3953381820001596,-0.9736328125,0.2314453125,-0.009521484375,1.3740458015267174,0.15267175572519084,0.366412213740458,7446,0,-2,18.40594482421875,-1.6762999905704428,-0.002628,False,,False,,,,,31
1748.551,1.397343376000208,-0.966552734375,0.233642578125,-0.006591796875,1.3435114503816794,0.33587786259541985,0.33587786259541985,7447,0,-5,18.408416748046875,-1.6054231854484844,-0.0065699999999999995,False,,False,,,,,31
1748.551,1.3993404780003402,-0.966552734375,0.233642578125,-0.006591796875,1.3435114503816794,0.33587786259541985,0.33587786259541985,7447,0,-5,18.408416748046875,-1.6054231854484844,-0.0065699999999999995,False,,False,,,,,31
1748.556,1.401345524000135,-0.96923828125,0.232666015625,-0.00830078125,1.2519083969465647,0.6106870229007634,0.12213740458015267,7447,1,3,18.408416748046875,-1.5192480904692875,0.003942,False,,False,,,,,32
1748.556,1.4033460880000348,-0.96923828125,0.232666015625,-0.00830078125,1.2519083969465647,0.6106870229007634,0.12213740458015267,7447,1,3,18.408416748046875,-1.5192480904692875,0.003942,False,,False,,,,,32
1748.556,1.4053456159999769,-0.96923828125,0.232666015625,-0.00830078125,1.2519083969465647,0.6106870229007634,0.12213740458015267,7447,1,3,18.408416748046875,-1.5192480904692875,0.003942,False,,False,,,,,32
1748.5610000000001,1.40735032900011,-0.9638671875,0.23388671875,-0.0078125,1.3129770992366412,0.6717557251908397,0.15267175572519084,7446,-7,4,18.40594482421875,-1.4250949512540045,0.005256,False,,False,,,,,32
1748.5610000000001,1.4093515970002954,-0.9638671875,0.23388671875,-0.0078125,1.3129770992366412,0.6717557251908397,0.15267175572519084,7446,-7,4,18.40594482421875,-1.4250949512540045,0.005256,False,,False,,,,,32
1748.566,1.411352791000354,-0.958251953125,0.234375,-0.006591796875,1.4351145038167938,0.916030534351145,0.061068702290076333,7446,1,5,18.40594482421875,-1.3292077188606912,0.0065699999999999995,False,,False,,,,,32
1748.566,1.4133536520002963,-0.958251953125,0.234375,-0.006591796875,1.4351145038167938,0.916030534351145,0.061068702290076333,7446,1,5,18.40594482421875,-1.3292077188606912,0.0065699999999999995,False,,False,,,,,32
1748.566,1.4153531800002384,-0.958251953125,0.234375,-0.006591796875,1.4351145038167938,0.916030534351145,0.061068702290076333,7446,1,5,18.40594482421875,-1.3292077188606912,0.0065699999999999995,False,,False,,,,,32
1748.5710000000001,1.4173572070003502,-0.9599609375,0.23779296875,-0.004150390625,1.6793893129770991,0.732824427480916,0.061068702290076333,7446,0,2,18.40594482421875,-1.2314673233785816,0.002628,False,,False,,,,,32
1748.5710000000001,1.4193560500002604,-0.9599609375,0.23779296875,-0.004150390625,1.6793893129770991,0.732824427480916,0.061068702290076333,7446,0,2,18.40594482421875,-1.2314673233785816,0.002628,False,,False,,,,,32
1748.576,1.4213603180000973,-0.960205078125,0.237548828125,-0.003173828125,1.984732824427481,0.5190839694656488,0.0,7446,2,2,18.40594482421875,-1.1318009279291767,0.002628,False,,False,,,,,32
1748.576,1.4233604380001452,-0.960205078125,0.237548828125,-0.003173828125,1.984732824427481,0.5190839694656488,0.0,7446,2,2,18.40594482421875,-1.1318009279291767,0.002628,False,,False,,,,,32
1748.576,1.4253615030002038,-0.960205078125,0.237548828125,-0.003173828125,1.984732824427481,0.5190839694656488,0.0,7446,2,2,18.40594482421875,-1.1318009279291767,0.002628,False,,False,,,,,32
1748.5810000000001,1.4273649560000194,-0.96142578125,0.232421875,-0.00341796875,1.8625954198473282,0.366412213740458,0.0916030534351145,7445,-5,3,18.403472900390625,-1.033756464581955,0.003942,False,,False,,,,,32
1748.5810000000001,1.429364206000173,-0.96142578125,0.232421875,-0.00341796875,1.8625954198473282,0.366412213740458,0.0916030534351145,7445,-5,3,18.403472900390625,-1.033756464581955,0.003942,False,,False,,,,,32
1748.586,1.4313676970000415,-0.961669921875,0.232421875,-0.000732421875,1.8015267175572518,0.366412213740458,0.0916030534351145,7446,0,7,18.40594482421875,-0.9384901963123654,0.009198,False,,False,,,,,32
1748.586,1.4333675020002374,-0.961669921875,0.232421875,-0.000732421875,1.8015267175572518,0.366412213740458,0.0916030534351145,7446,0,7,18.40594482421875,-0.9384901963123654,0.009198,False,,False,,,,,32
1748.586,1.4353683809999893,-0.961669921875,0.232421875,-0.000732421875,1.8015267175572518,0.366412213740458,0.0916030534351145,7446,0,7,18.40594482421875,-0.9384901963123654,0.009198,False,,False,,,,,32
1748.5910000000001,1.4373727980000695,-0.96240234375,0.228759765625,-0.000244140625,1.7404580152671756,0.24427480916030533,0.0916030534351145,7445,-2,0,18.403472900390625,-0.8451393741495634,0.0,False,,False,,,,,32
1748.5910000000001,1.4393710480003392,-0.96240234375,0.228759765625,-0.000244140625,1.7404580152671756,0.24427480916030533,0.0916030534351145,7445,-2,0,18.403472900390625,-0.8451393741495634,0.0,False,,False,,,,,32
1748.596,1.441374519999954,-0.961181640625,0.23193359375,-0.00146484375,1.8015267175572518,0.21374045801526717,0.061068702290076333,7446,0,1,18.40594482421875,-0.7547444761094553,0.001314,False,,False,,,,,32
1748.596,1.4433777320000445,-0.961181640625,0.23193359375,-0.00146484375,1.8015267175572518,0.21374045801526717,0.061068702290076333,7446,0,1,18.40594482421875,-0.7547444761094553,0.001314,False,,False,,,,,32
1748.596,1.445374964000166,-0.961181640625,0.23193359375,-0.00146484375,1.8015267175572518,0.21374045801526717,0.061068702290076333,7446,0,1,18.40594482421875,-0.7547444761094553,0.001314,False,,False,,,,,32
1748.601,1.4473797880000348,-0.96142578125,0.228759765625,-0.003662109375,1.8931297709923662,0.0,-0.030534351145038167,7447,2,-1,18.408416748046875,-0.6645527412986998,-0.001314,False,,False,,,,,32
1748.601,1.4493790380001883,-0.96142578125,0.228759765625,-0.003662109375,1.8931297709923662,0.0,-0.030534351145038167,7447,2,-1,18.408416748046875,-0.6645527412986998,-0.001314,False,,False,,,,,32
1748.606,1.4513819349999721,-0.96337890625,0.2294921875,-0.003173828125,1.5267175572519083,-0.21374045801526717,0.0,7446,3,1,18.40594482421875,-0.5758376739709851,0.001314,False,,False,,,,,31
1748.606,1.4533829450001576,-0.96337890625,0.2294921875,-0.003173828125,1.5267175572519083,-0.21374045801526717,0.0,7446,3,1,18.40594482421875,-0.5758376739709851,0.001314,False,,False,,,,,31
1748.606,1.4553822500001843,-0.96337890625,0.2294921875,-0.003173828125,1.5267175572519083,-0.21374045801526717,0.0,7446,3,1,18.40594482421875,-0.5758376739709851,0.001314,False,,False,,,,,31
1748.611,1.4573872590003702,-0.9658203125,0.22607421875,-0.006591796875,1.3740458015267174,-0.0916030534351145,0.0916030534351145,7447,4,5,18.408416748046875,-0.49322504477676155,0.0065699999999999995,False,,False,,,,,31
1748.611,1.4593842870003755,-0.9658203125,0.22607421875,-0.006591796875,1.3740458015267174,-0.0916030534351145,0.0916030534351145,7447,4,5,18.408416748046875,-0.49322504477676155,0.0065699999999999995,False,,False,,,,,31
1748.616,1.4613880730003075,-0.966064453125,0.22900390625,-0.002197265625,1.4045801526717556,-0.030534351145038167,-0.0916030534351145,7446,1,1,18.40594482421875,-0.4169180513440314,0.001314,False,,False,,,,,31
1748.616,1.4633899340001335,-0.966064453125,0.22900390625,-0.002197265625,1.4045801526717556,-0.030534351145038167,-0.0916030534351145,7446,1,1,18.40594482421875,-0.4169180513440314,0.001314,False,,False,,,,,31
1748.616,1.4653895360002025,-0.966064453125,0.22900390625,-0.002197265625,1.4045801526717556,-0.030534351145038167,-0.0916030534351145,7446,1,1,18.40594482421875,-0.4169180513440314,0.001314,False,,False,,,,,31
1748.621,1.4673937490001663,-0.96533203125,0.231201171875,-0.00732421875,1.2519083969465647,-0.0916030534351145,0.030534351145038167,7447,4,6,18.408416748046875,-0.34699545898062784,0.007884,False,,False,,,,,31
1748.621,1.4693917210001928,-0.96533203125,0.231201171875,-0.00732421875,1.2519083969465647,-0.0916030534351145,0.030534351145038167,7447,4,6,18.408416748046875,-0.34699545898062784,0.007884,False,,False,,,,,31
1748.626,1.4713969150002413,-0.964599609375,0.232666015625,-0.006103515625,1.3129770992366412,-0.15267175572519084,-0.061068702290076333,7447,5,9,18.408416748046875,-0.2816402153207087,0.011826,False,,False,,,,,31
1748.626,1.4733976279999297,-0.964599609375,0.232666015625,-0.006103515625,1.3129770992366412,-0.15267175572519084,-0.061068702290076333,7447,5,9,18.408416748046875,-0.2816402153207087,0.011826,False,,False,,,,,31
1748.626,1.475397415000316,-0.964599609375,0.232666015625,-0.006103515625,1.3129770992366412,-0.15267175572519084,-0.061068702290076333,7447,5,9,18.408416748046875,-0.2816402153207087,0.011826,False,,False,,,,,31
1748.631,1.4774016460000894,-0.96630859375,0.228515625,-0.00537109375,1.4351145038167938,0.0916030534351145,-0.15267175572519084,7447,0,7,18.408416748046875,-0.2210554557016205,0.009198,False,,False,,,,,31
1748.631,1.4793990440002744,-0.96630859375,0.228515625,-0.00537109375,1.4351145038167938,0.0916030534351145,-0.15267175572519084,7447,0,7,18.408416748046875,-0.2210554557016205,0.009198,False,,False,,,,,31
1748.636,1.48140273800027,-0.9677734375,0.23046875,-0.00537109375,1.4045801526717556,0.21374045801526717,0.0916030534351145,7446,3,0,18.40594482421875,-0.16892314093897706,0.0,False,,False,,,,,31
1748.636,1.483402099000159,-0.9677734375,0.23046875,-0.00537109375,1.4045801526717556,0.21374045801526717,0.0916030534351145,7446,3,0,18.40594482421875,-0.16892314093897706,0.0,False,,False,,,,,31
1748.636,1.4854069040002287,-0.9677734375,0.23046875,-0.00537109375,1.4045801526717556,0.21374045801526717,0.0916030534351145,7446,3,0,18.40594482421875,-0.16892314093897706,0.0,False,,False,,,,,31
1748.641,1.4874068020003506,-0.964111328125,0.23291015625,-0.002685546875,1.4351145038167938,0.0,-0.061068702290076333,7446,3,-3,18.40594482421875,-0.1264127886481965,-0.003942,False,,False,,,,,31
1748.641,1.4894074779999755,-0.964111328125,0.23291015625,-0.002685546875,1.4351145038167938,0.0,-0.061068702290076333,7446,3,-3,18.40594482421875,-0.1264127886481965,-0.003942,False,,False,,,,,31
1748.646,1.4914113580002777,-0.9658203125,0.233642578125,-0.0048828125,1.3129770992366412,0.0916030534351145,-0.12213740458015267,7446,-1,2,18.40594482421875,-0.0907830984493033,0.002628,False,,False,,,,,31
1748.646,1.493410866999966,-0.9658203125,0.233642578125,-0.0048828125,1.3129770992366412,0.0916030534351145,-0.12213740458015267,7446,-1,2,18.40594482421875,-0.0907830984493033,0.002628,False,,False,,,,,31
1748.646,1.4954097459999502,-0.9658203125,0.233642578125,-0.0048828125,1.3129770992366412,0.0916030534351145,-0.12213740458015267,7446,-1,2,18.40594482421875,-0.0907830984493033,0.002628,False,,False,,,,,31
1748.651,1.497414700000263,-0.970458984375,0.232666015625,-0.0048828125,1.4351145038167938,0.15267175572519084,0.030534351145038167,7445,-4,8,18.403472900390625,-0.06142992986365352,0.010512,False,,False,,,,,31
1748.651,1.4994123940000463,-0.970458984375,0.232666015625,-0.0048828125,1.4351145038167938,0.15267175572519084,0.030534351145038167,7445,-4,8,18.403472900390625,-0.06142992986365352,0.010512,False,,False,,,,,31
1748.656,1.501416884000264,-0.968505859375,0.233154296875,-0.00439453125,1.5572519083969465,0.183206106870229,0.030534351145038167,7446,-2,5,18.40594482421875,-0.037756581318526494,0.0065699999999999995,False,,False,,,,,32
1748.656,1.5034179490003226,-0.968505859375,0.233154296875,-0.00439453125,1.5572519083969465,0.183206106870229,0.030534351145038167,7446,-2,5,18.40594482421875,-0.037756581318526494,0.0065699999999999995,False,,False,,,,,32
1748.656,1.505417736000254,-0.968505859375,0.233154296875,-0.00439453125,1.5572519083969465,0.183206106870229,0.030534351145038167,7446,-2,5,18.40594482421875,-0.037756581318526494,0.0065699999999999995,False,,False,,,,,32
1748.661,1.5074220780002179,-0.969482421875,0.234130859375,-0.002197265625,1.618320610687023,0.48854961832061067,0.0,7445,-3,-3,18.403472900390625,-0.017390719042082024,-0.003942,False,,False,,,,,32
1748.661,1.5094202909999694,-0.969482421875,0.234130859375,-0.002197265625,1.618320610687023,0.48854961832061067,0.0,7445,-3,-3,18.403472900390625,-0.017390719042082024,-0.003942,False,,False,,,,,32
1748.666,1.5114241330002187,-0.969482421875,0.236572265625,-0.002197265625,1.5267175572519083,0.3969465648854962,-0.030534351145038167,7446,-3,0,18.40594482421875,-8.885824932855263e-05,0.0,False,,False,,,,,31
1748.666,1.5134250680002879,-0.969482421875,0.236572265625,-0.002197265625,1.5267175572519083,0.3969465648854962,-0.030534351145038167,7446,-3,0,18.40594482421875,-8.885824932855263e-05,0.0,False,,False,,,,,31
1748.666,1.5154245590001665,-0.969482421875,0.236572265625,-0.002197265625,1.5267175572519083,0.3969465648854962,-0.030534351145038167,7446,-3,0,18.40594482421875,-8.885824932855263e-05,0.0,False,,False,,,,,31
1748.671,1.5174280129999715,-0.970947265625,0.238525390625,-0.002685546875,1.618320610687023,0.3053435114503817,-0.030534351145038167,7445,0,3,18.403472900390625,0.01439722940422965,0.003942,False,,False,,,,,31
1748.671,1.5194264660003682,-0.970947265625,0.238525390625,-0.002685546875,1.618320610687023,0.3053435114503817,-0.030534351145038167,7445,0,3,18.403472900390625,0.01439722940422965,0.003942,False,,False,,,,,31
1748.676,1.5214305680001416,-0.966796875,0.237548828125,-0.003173828125,1.648854961832061,0.6412213740458015,0.030534351145038167,7443,-1,-4,18.398529052734375,0.0209446349671337,-0.005256,False,,False,,,,,31
1748.676,1.5234318729999359,-0.966796875,0.237548828125,-0.003173828125,1.648854961832061,0.6412213740458015,0.030534351145038167,7443,-1,-4,18.398529052734375,0.0209446349671337,-0.005256,False,,False,,,,,31
1748.676,1.525434771000164,-0.966796875,0.237548828125,-0.003173828125,1.648854961832061,0.6412213740458015,0.030534351145038167,7443,-1,-4,18.398529052734375,0.0209446349671337,-0.005256,False,,False,,,,,31
1748.681,1.5274326500002644,-0.9658203125,0.239990234375,-0.00244140625,1.5877862595419847,0.549618320610687,0.15267175572519084,7443,-7,-1,18.398529052734375,0.017170062743776762,-0.001314,False,,False,,,,,31
1748.681,1.529434030000175,-0.9658203125,0.239990234375,-0.00244140625,1.5877862595419847,0.549618320610687,0.15267175572519084,7443,-7,-1,18.398529052734375,0.017170062743776762,-0.001314,False,,False,,,,,31
1748.6860000000001,1.5314374280001175,-0.9638671875,0.241455078125,-0.004150390625,1.3740458015267174,0.5801526717557252,0.2748091603053435,7441,-12,1,18.393585205078125,0.006599305473932402,0.001314,False,,False,,,,,32
1748.6860000000001,1.5334377150002183,-0.9638671875,0.241455078125,-0.004150390625,1.3740458015267174,0.5801526717557252,0.2748091603053435,7441,-12,1,18.393585205078125,0.006599305473932402,0.001314,False,,False,,,,,32
1748.6860000000001,1.5354382790001182,-0.9638671875,0.241455078125,-0.004150390625,1.3740458015267174,0.5801526717557252,0.2748091603053435,7441,-12,1,18.393585205078125,0.006599305473932402,0.001314,False,,False,,,,,32
1748.691,1.5374420110001665,-0.960693359375,0.245849609375,0.000244140625,1.2213740458015268,0.916030534351145,0.6717557251908397,7436,-26,0,18.3812255859375,-0.018460478385240627,0.0,False,,False,,,,,32
1748.691,1.5394409640002777,-0.960693359375,0.245849609375,0.000244140625,1.2213740458015268,0.916030534351145,0.6717557251908397,7436,-26,0,18.3812255859375,-0.018460478385240627,0.0,False,,False,,,,,32
1748.6960000000001,1.5414446770000723,-0.94873046875,0.260986328125,-0.001708984375,-1.0381679389312977,1.2213740458015268,2.6259541984732824,7427,-40,7,18.358978271484375,-0.07677322522873156,0.009198,False,,False,,,,,32
1748.6960000000001,1.5434461490003741,-0.94873046875,0.260986328125,-0.001708984375,-1.0381679389312977,1.2213740458015268,2.6259541984732824,7427,-40,7,18.358978271484375,-0.07677322522873156,0.009198,False,,False,,,,,32
1748.6960000000001,1.5454457690002528,-0.94873046875,0.260986328125,-0.001708984375,-1.0381679389312977,1.2213740458015268,2.6259541984732824,7427,-40,7,18.358978271484375,-0.07677322522873156,0.009198,False,,False,,,,,32
1748.701,1.5474494449999838,-0.93896484375,0.27587890625,-0.00048828125,-2.900763358778626,1.6793893129770991,3.9389312977099236,7408,-87,5,18.31201171875,-0.19968056924905142,0.0065699999999999995,False,,False,,,,,32
1748.701,1.54944802800037,-0.93896484375,0.27587890625,-0.00048828125,-2.900763358778626,1.6793893129770991,3.9389312977099236,7408,-87,5,18.31201171875,-0.19968056924905142,0.0065699999999999995,False,,False,,,,,32
1748.7060000000001,1.5514519440002914,-0.936279296875,0.27197265625,-0.00537109375,-3.236641221374046,1.5267175572519083,4.030534351145038,7387,-96,0,18.260101318359375,-0.421437908112747,0.0,False,,False,,,,,32
1748.7060000000001,1.553456935000213,-0.936279296875,0.27197265625,-0.00537109375,-3.236641221374046,1.5267175572519083,4.030534351145038,7387,-96,0,18.260101318359375,-0.421437908112747,0.0,False,,False,,,,,32
1748.7060000000001,1.5554526109999642,-0.936279296875,0.27197265625,-0.00537109375,-3.236641221374046,1.5267175572519083,4.030534351145038,7387,-96,0,18.260101318359375,-0.421437908112747,0.0,False,,False,,,,,32
1748.711,1.5574538979999488,-0.949951171875,0.2685546875,-0.00830078125,0.0916030534351145,1.3435114503816794,3.7862595419847325,7368,-78,6,18.213134765625,-0.7442241610688672,0.007884,False,,False,,,,,32
1748.711,1.559454962000018,-0.949951171875,0.2685546875,-0.00830078125,0.0916030534351145,1.3435114503816794,3.7862595419847325,7368,-78,6,18.213134765625,-0.7442241610688672,0.007884,False,,False,,,,,32
1748.7160000000001,1.56145848999995,-0.940185546875,0.269775390625,-0.00830078125,-0.8244274809160305,1.5877862595419847,5.2824427480916025,7345,-105,0,18.156280517578125,-1.1504948594608442,0.0,False,,False,,,,,32
1748.7160000000001,1.5634581290000824,-0.940185546875,0.269775390625,-0.00830078125,-0.8244274809160305,1.5877862595419847,5.2824427480916025,7345,-105,0,18.156280517578125,-1.1504948594608442,0.0,False,,False,,,,,32
1748.7160000000001,1.5654622300003211,-0.940185546875,0.269775390625,-0.00830078125,-0.8244274809160305,1.5877862595419847,5.2824427480916025,7345,-105,0,18.156280517578125,-1.1504948594608442,0.0,False,,False,,,,,32
1748.721,1.5674598690002313,-0.94482421875,0.237060546875,-0.00537109375,-1.6793893129770991,1.1908396946564885,4.458015267175572,7318,-115,-2,18.08953857421875,-1.638676713092836,-0.002628,False,,False,,,,,32
1748.721,1.5694647110003643,-0.94482421875,0.237060546875,-0.00537109375,-1.6793893129770991,1.1908396946564885,4.458015267175572,7318,-115,-2,18.08953857421875,-1.638676713092836,-0.002628,False,,False,,,,,32
1748.726,1.571469628000159,-0.973388671875,0.238525390625,-0.005615234375,2.1374045801526718,1.4045801526717556,3.1755725190839694,7301,-70,-2,18.047515869140625,-2.1919419344784874,-0.002628,False,,False,,,,,31
1748.726,1.573465988999942,-0.973388671875,0.238525390625,-0.005615234375,2.1374045801526718,1.4045801526717556,3.1755725190839694,7301,-70,-2,18.047515869140625,-2.1919419344784874,-0.002628,False,,False,,,,,31
1748.726,1.57546525700036,-0.973388671875,0.238525390625,-0.005615234375,2.1374045801526718,1.4045801526717556,3.1755725190839694,7301,-70,-2,18.047515869140625,-2.1919419344784874,-0.002628,False,,False,,,,,31
1748.731,1.577466061999985,-0.96240234375,0.235107421875,-0.01416015625,5.251908396946565,1.129770992366412,2.229007633587786,7290,-59,-4,18.02032470703125,-2.752287663776046,-0.005256,False,,False,,,,,31
1748.731,1.579467164000107,-0.96240234375,0.235107421875,-0.01416015625,5.251908396946565,1.129770992366412,2.229007633587786,7290,-59,-4,18.02032470703125,-2.752287663776046,-0.005256,False,,False,,,,,31
1748.736,1.5814705810003034,-0.982421875,0.20361328125,0.008544921875,3.5725190839694654,0.366412213740458,1.282442748091603,7279,-42,-9,17.993133544921875,-3.271052397627138,-0.011826,False,,False,,,,,31
1748.736,1.5834705710003618,-0.982421875,0.20361328125,0.008544921875,3.5725190839694654,0.366412213740458,1.282442748091603,7279,-42,-9,17.993133544921875,-3.271052397627138,-0.011826,False,,False,,,,,31
1748.736,1.5854715620002935,-0.982421875,0.20361328125,0.008544921875,3.5725190839694654,0.366412213740458,1.282442748091603,7279,-42,-9,17.993133544921875,-3.271052397627138,-0.011826,False,,False,,,,,31
1748.741,1.5874722739999925,-0.986083984375,0.200439453125,0.0107421875,3.32824427480916,0.48854961832061067,0.3969465648854962,7274,-25,-7,17.98077392578125,-3.7260050324576097,-0.009198,False,,False,,,,,31
1748.741,1.5894741170000088,-0.986083984375,0.200439453125,0.0107421875,3.32824427480916,0.48854961832061067,0.3969465648854962,7274,-25,-7,17.98077392578125,-3.7260050324576097,-0.009198,False,,False,,,,,31
1748.746,1.591478293000364,-0.98583984375,0.205810546875,0.00634765625,4.580152671755725,0.030534351145038167,-0.7633587786259541,7273,1,-3,17.978302001953125,-4.092296507998267,-0.003942,False,,False,,,,,31
1748.746,1.5934793940000418,-0.98583984375,0.205810546875,0.00634765625,4.580152671755725,0.030534351145038167,-0.7633587786259541,7273,1,-3,17.978302001953125,-4.092296507998267,-0.003942,False,,False,,,,,31
1748.746,1.595478311000079,-0.98583984375,0.205810546875,0.00634765625,4.580152671755725,0.030534351145038167,-0.7633587786259541,7273,1,-3,17.978302001953125,-4.092296507998267,-0.003942,False,,False,,,,,31
1748.751,1.5974801350002963,-0.9853515625,0.221923828125,0.003173828125,4.9465648854961835,0.030534351145038167,-0.6717557251908397,7273,-3,-6,17.978302001953125,-4.35219856103452,-0.007884,False,,False,,,,,31
1748.751,1.5994808099999318,-0.9853515625,0.221923828125,0.003173828125,4.9465648854961835,0.030534351145038167,-0.6717557251908397,7273,-3,-6,17.978302001953125,-4.35219856103452,-0.007884,False,,False,,,,,31
1748.756,1.6014849860002869,-0.978515625,0.2294921875,0.002197265625,3.4198473282442747,-0.366412213740458,-0.6717557251908397,7273,-2,0,17.978302001953125,-4.508525186815937,0.0,False,,False,,,,,31
1748.756,1.6034851429999435,-0.978515625,0.2294921875,0.002197265625,3.4198473282442747,-0.366412213740458,-0.6717557251908397,7273,-2,0,17.978302001953125,-4.508525186815937,0.0,False,,False,,,,,31
1748.756,1.6054852080001183,-0.978515625,0.2294921875,0.002197265625,3.4198473282442747,-0.366412213740458,-0.6717557251908397,7273,-2,0,17.978302001953125,-4.508525186815937,0.0,False,,False,,,,,31
1748.761,1.6074861980000605,-0.97607421875,0.239013671875,-0.001708984375,3.3893129770992365,-0.12213740458015267,-0.42748091603053434,7273,-3,8,17.978302001953125,-4.574085200208179,0.010512,False,,False,,,,,31
1748.761,1.6094869300000028,-0.97607421875,0.239013671875,-0.001708984375,3.3893129770992365,-0.12213740458015267,-0.42748091603053434,7273,-3,8,17.978302001953125,-4.574085200208179,0.010512,False,,False,,,,,31
1748.766,1.6114909570001146,-0.974853515625,0.23828125,-0.00732421875,3.7862595419847325,-0.15267175572519084,-0.48854961832061067,7273,1,4,17.978302001953125,-4.5627073212070535,0.005256,False,,False,,,,,31
1748.766,1.6134915400002683,-0.974853515625,0.23828125,-0.00732421875,3.7862595419847325,-0.15267175572519084,-0.48854961832061067,7273,1,4,17.978302001953125,-4.5627073212070535,0.005256,False,,False,,,,,31
1748.766,1.615490809000221,-0.974853515625,0.23828125,-0.00732421875,3.7862595419847325,-0.15267175572519084,-0.48854961832061067,7273,1,4,17.978302001953125,-4.5627073212070535,0.005256,False,,False,,,,,31
1748.771,1.6174919850000151,-0.97216796875,0.24169921875,-0.01025390625,4.091603053435114,-0.42748091603053434,-0.48854961832061067,7273,-1,-5,17.978302001953125,-4.4870832786241195,-0.0065699999999999995,False,,False,,,,,31
1748.771,1.6194942900001479,-0.97216796875,0.24169921875,-0.01025390625,4.091603053435114,-0.42748091603053434,-0.48854961832061067,7273,-1,-5,17.978302001953125,-4.4870832786241195,-0.0065699999999999995,False,,False,,,,,31
1748.776,1.6214975400002913,-0.96875,0.240234375,-0.011962890625,4.396946564885496,0.0,-0.33587786259541985,7272,0,-3,17.975830078125,-4.360559575682217,-0.003942,False,,False,,,,,31
1748.776,1.6234976780001489,-0.96875,0.240234375,-0.011962890625,4.396946564885496,0.0,-0.33587786259541985,7272,0,-3,17.975830078125,-4.360559575682217,-0.003942,False,,False,,,,,31
1748.776,1.6254972430001544,-0.96875,0.240234375,-0.011962890625,4.396946564885496,0.0,-0.33587786259541985,7272,0,-3,17.975830078125,-4.360559575682217,-0.003942,False,,False,,,,,31
1748.781,1.627498585000012,-0.966796875,0.239013671875,-0.009765625,4.427480916030534,0.3053435114503817,-0.2748091603053435,7274,2,1,17.98077392578125,-4.191466021090153,0.001314,False,,False,,,,,31
1748.781,1.6294999460001236,-0.966796875,0.239013671875,-0.009765625,4.427480916030534,0.3053435114503817,-0.2748091603053435,7274,2,1,17.98077392578125,-4.191466021090153,0.001314,False,,False,,,,,31
1748.786,1.631503604000045,-0.96728515625,0.23779296875,-0.00927734375,4.702290076335878,0.5190839694656488,-0.183206106870229,7273,4,0,17.978302001953125,-3.985602371469783,0.0,False,,False,,,,,31
1748.786,1.6335052419999556,-0.96728515625,0.23779296875,-0.00927734375,4.702290076335878,0.5190839694656488,-0.183206106870229,7273,4,0,17.978302001953125,-3.985602371469783,0.0,False,,False,,,,,31
1748.786,1.6355042330001197,-0.96728515625,0.23779296875,-0.00927734375,4.702290076335878,0.5190839694656488,-0.183206106870229,7273,4,0,17.978302001953125,-3.985602371469783,0.0,False,,False,,,,,31
1748.791,1.6375055940002312,-0.96484375,0.240966796875,-0.008544921875,4.763358778625954,0.732824427480916,-0.3053435114503817,7273,5,4,17.978302001953125,-3.7555187716084166,0.005256,False,,False,,,,,31
1748.791,1.6395075469999938,-0.96484375,0.240966796875,-0.008544921875,4.763358778625954,0.732824427480916,-0.3053435114503817,7273,5,4,17.978302001953125,-3.7555187716084166,0.005256,False,,False,,,,,31
1748.796,1.6415115190002325,-0.96142578125,0.242919921875,-0.0048828125,4.916030534351145,1.0687022900763359,-0.21374045801526717,7272,-3,3,17.975830078125,-3.512072840226916,0.003942,False,,False,,,,,31
1748.796,1.6435129910000796,-0.96142578125,0.242919921875,-0.0048828125,4.916030534351145,1.0687022900763359,-0.21374045801526717,7272,-3,3,17.975830078125,-3.512072840226916,0.003942,False,,False,,,,,31
1748.796,1.6455173150002338,-0.96142578125,0.242919921875,-0.0048828125,4.916030534351145,1.0687022900763359,-0.21374045801526717,7272,-3,3,17.975830078125,-3.512072840226916,0.003942,False,,False,,,,,31
1748.801,1.6475182870003664,-0.963134765625,0.24169921875,-0.0048828125,5.068702290076335,1.3740458015267174,-0.3969465648854962,7273,4,0,17.978302001953125,-3.259176440430066,0.0,False,,False,,,,,31
1748.801,1.6495153890000438,-0.963134765625,0.24169921875,-0.0048828125,5.068702290076335,1.3740458015267174,-0.3969465648854962,7273,4,0,17.978302001953125,-3.259176440430066,0.0,False,,False,,,,,31
1748.806,1.6515171940000073,-0.958251953125,0.244873046875,-0.0009765625,5.190839694656488,1.465648854961832,-0.183206106870229,7271,-3,4,17.973358154296875,-3.0020319227453744,0.005256,False,,False,,,,,31
1748.806,1.6535235370001828,-0.958251953125,0.244873046875,-0.0009765625,5.190839694656488,1.465648854961832,-0.183206106870229,7271,-3,4,17.973358154296875,-3.0020319227453744,0.005256,False,,False,,,,,31
1748.806,1.6555203610000717,-0.958251953125,0.244873046875,-0.0009765625,5.190839694656488,1.465648854961832,-0.183206106870229,7271,-3,4,17.973358154296875,-3.0020319227453744,0.005256,False,,False,,,,,31
1748.8110000000001,1.657520962000035,-0.9599609375,0.24609375,-0.001220703125,5.557251908396946,1.5877862595419847,-0.24427480916030533,7269,-9,3,17.968414306640625,-2.7522181575656957,0.003942,False,,False,,,,,31
1748.8110000000001,1.659522656000263,-0.9599609375,0.24609375,-0.001220703125,5.557251908396946,1.5877862595419847,-0.24427480916030533,7269,-9,3,17.968414306640625,-2.7522181575656957,0.003942,False,,False,,,,,31
1748.816,1.6615229990002263,-0.961181640625,0.24658203125,0.00048828125,5.923664122137405,1.8015267175572518,-0.3053435114503817,7269,-5,1,17.968414306640625,-2.5139510516221857,0.001314,False,,False,,,,,31
1748.816,1.6635355630000959,-0.961181640625,0.24658203125,0.00048828125,5.923664122137405,1.8015267175572518,-0.3053435114503817,7269,-5,1,17.968414306640625,-2.5139510516221857,0.001314,False,,False,,,,,31
1748.816,1.665527110000312,-0.961181640625,0.24658203125,0.00048828125,5.923664122137405,1.8015267175572518,-0.3053435114503817,7269,-5,1,17.968414306640625,-2.5139510516221857,0.001314,False,,False,,,,,31
1748.8210000000001,1.6675288410001485,-0.960693359375,0.247802734375,-0.000732421875,5.984732824427481,1.6793893129770991,-0.21374045801526717,7269,-2,0,17.968414306640625,-2.2816402905497966,0.0,False,,False,,,,,31
1748.8210000000001,1.6695303870001226,-0.960693359375,0.247802734375,-0.000732421875,5.984732824427481,1.6793893129770991,-0.21374045801526717,7269,-2,0,17.968414306640625,-2.2816402905497966,0.0,False,,False,,,,,31
1748.826,1.6715320810003504,-0.96435546875,0.245361328125,0.001220703125,6.229007633587786,1.5877862595419847,-0.2748091603053435,7267,-4,0,17.963470458984375,-2.0576814944686057,0.0,False,,False,,,,,31
1748.826,1.6735346640002717,-0.96435546875,0.245361328125,0.001220703125,6.229007633587786,1.5877862595419847,-0.2748091603053435,7267,-4,0,17.963470458984375,-2.0576814944686057,0.0,False,,False,,,,,31
1748.826,1.6755352660002245,-0.96435546875,0.245361328125,0.001220703125,6.229007633587786,1.5877862595419847,-0.2748091603053435,7267,-4,0,17.963470458984375,-2.0576814944686057,0.0,False,,False,,,,,31
1748.8310000000001,1.6775363120000293,-0.9677734375,0.248046875,-0.000732421875,6.412213740458015,1.6793893129770991,-0.12213740458015267,7265,-11,-1,17.958526611328125,-1.8511212566251822,-0.001314,False,,False,,,,,31
1748.8310000000001,1.6795380799999293,-0.9677734375,0.248046875,-0.000732421875,6.412213740458015,1.6793893129770991,-0.12213740458015267,7265,-11,-1,17.958526611328125,-1.8511212566251822,-0.001314,False,,False,,,,,31
1748.836,1.681539590000284,-0.96875,0.246826171875,-0.004638671875,6.717557251908397,1.8625954198473282,-0.33587786259541985,7265,-7,-4,17.958526611328125,-1.662119154077031,-0.005256,False,,False,,,,,31
1748.836,1.6835425990002477,-0.96875,0.246826171875,-0.004638671875,6.717557251908397,1.8625954198473282,-0.33587786259541985,7265,-7,-4,17.958526611328125,-1.662119154077031,-0.005256,False,,False,,,,,31
1748.836,1.6855425520002427,-0.96875,0.246826171875,-0.004638671875,6.717557251908397,1.8625954198473282,-0.33587786259541985,7265,-7,-4,17.958526611328125,-1.662119154077031,-0.005256,False,,False,,,,,31
1748.8410000000001,1.6875444130000687,-0.969970703125,0.248291015625,-0.00732421875,6.748091603053435,1.8931297709923662,-0.24427480916030533,7263,-3,0,17.953582763671875,-1.4869734135787405,0.0,False,,False,,,,,31
1748.8410000000001,1.6895450890001484,-0.969970703125,0.248291015625,-0.00732421875,6.748091603053435,1.8931297709923662,-0.24427480916030533,7263,-3,0,17.953582763671875,-1.4869734135787405,0.0,False,,False,,,,,31
1748.846,1.6915474500001437,-0.97119140625,0.25146484375,-0.003662109375,6.931297709923664,2.229007633587786,-0.48854961832061067,7260,-10,1,17.9461669921875,-1.331336766005784,0.001314,False,,False,,,,,31
1748.846,1.6935491809999803,-0.97119140625,0.25146484375,-0.003662109375,6.931297709923664,2.229007633587786,-0.48854961832061067,7260,-10,1,17.9461669921875,-1.331336766005784,0.001314,False,,False,,,,,31
1748.846,1.6955508010000813,-0.97119140625,0.25146484375,-0.003662109375,6.931297709923664,2.229007633587786,-0.48854961832061067,7260,-10,1,17.9461669921875,-1.331336766005784,0.001314,False,,False,,,,,31
1748.851,1.6975518470003408,-0.969482421875,0.2529296875,-0.008056640625,7.114503816793893,1.984732824427481,-0.366412213740458,7259,-11,1,17.943695068359375,-1.1978684468748266,0.001314,False,,False,,,,,31
1748.851,1.6995535790001668,-0.969482421875,0.2529296875,-0.008056640625,7.114503816793893,1.984732824427481,-0.366412213740458,7259,-11,1,17.943695068359375,-1.1978684468748266,0.001314,False,,False,,,,,31
1748.856,1.7015552910002043,-0.967041015625,0.2587890625,-0.009765625,7.450381679389313,2.1374045801526718,-0.3053435114503817,7257,-9,0,17.938751220703125,-1.0813115561975728,0.0,False,,False,,,,,31
1748.856,1.7035577260003265,-0.967041015625,0.2587890625,-0.009765625,7.450381679389313,2.1374045801526718,-0.3053435114503817,7257,-9,0,17.938751220703125,-1.0813115561975728,0.0,False,,False,,,,,31
1748.856,1.70555782800011,-0.967041015625,0.2587890625,-0.009765625,7.450381679389313,2.1374045801526718,-0.3053435114503817,7257,-9,0,17.938751220703125,-1.0813115561975728,0.0,False,,False,,,,,31
1748.861,1.707577078000213,-0.964599609375,0.262939453125,-0.009765625,7.3893129770992365,2.351145038167939,-0.030534351145038167,7252,-21,-5,17.9263916015625,-0.9859726433644826,-0.0065699999999999995,False,,False,,,,,31
1748.861,1.7095600500001638,-0.964599609375,0.262939453125,-0.009765625,7.3893129770992365,2.351145038167939,-0.030534351145038167,7252,-21,-5,17.9263916015625,-0.9859726433644826,-0.0065699999999999995,False,,False,,,,,31
1748.866,1.711562096000307,-0.962646484375,0.266357421875,-0.01416015625,7.450381679389313,2.4122137404580153,0.2748091603053435,7246,-26,1,17.91156005859375,-0.9241022143077511,0.001314,False,,False,,,,,32
1748.866,1.7135654940002496,-0.962646484375,0.266357421875,-0.01416015625,7.450381679389313,2.4122137404580153,0.2748091603053435,7246,-26,1,17.91156005859375,-0.9241022143077511,0.001314,False,,False,,,,,32
1748.866,1.7155674840000756,-0.962646484375,0.266357421875,-0.01416015625,7.450381679389313,2.4122137404580153,0.2748091603053435,7246,-26,1,17.91156005859375,-0.9241022143077511,0.001314,False,,False,,,,,32
1748.871,1.7175652340001761,-0.957275390625,0.2763671875,-0.012451171875,6.5038167938931295,2.8091603053435112,1.129770992366412,7232,-60,6,17.876953125,-0.9144238398907494,0.007884,False,,False,,,,,32
1748.871,1.7195664660002876,-0.957275390625,0.2763671875,-0.012451171875,6.5038167938931295,2.8091603053435112,1.129770992366412,7232,-60,6,17.876953125,-0.9144238398907494,0.007884,False,,False,,,,,32
1748.876,1.7215679930000078,-0.92236328125,0.317138671875,-0.009521484375,0.7938931297709924,4.122137404580153,5.557251908396946,7205,-128,2,17.810211181640625,-1.002295028926693,0.002628,False,,False,,,,,31
1748.876,1.7235695020003732,-0.92236328125,0.317138671875,-0.009521484375,0.7938931297709924,4.122137404580153,5.557251908396946,7205,-128,2,17.810211181640625,-1.002295028926693,0.002628,False,,False,,,,,31
1748.876,1.7255707890003578,-0.92236328125,0.317138671875,-0.009521484375,0.7938931297709924,4.122137404580153,5.557251908396946,7205,-128,2,17.810211181640625,-1.002295028926693,0.002628,False,,False,,,,,31
1748.881,1.7275761310002054,-0.92138671875,0.313720703125,-0.013916015625,1.282442748091603,3.66412213740458,5.587786259541985,7171,-151,-1,17.726165771484375,-1.243970627573462,-0.001314,False,,False,,,,,31
1748.881,1.7295732330003375,-0.92138671875,0.313720703125,-0.013916015625,1.282442748091603,3.66412213740458,5.587786259541985,7171,-151,-1,17.726165771484375,-1.243970627573462,-0.001314,False,,False,,,,,31
1748.886,1.7315748900000472,-0.925537109375,0.34326171875,-0.022216796875,3.32824427480916,4.885496183206107,7.511450381679389,7130,-179,-5,17.62481689453125,-1.671784509311075,-0.0065699999999999995,False,,False,,,,,31
1748.886,1.7335787330002859,-0.925537109375,0.34326171875,-0.022216796875,3.32824427480916,4.885496183206107,7.511450381679389,7130,-179,-5,17.62481689453125,-1.671784509311075,-0.0065699999999999995,False,,False,,,,,31
1748.886,1.7355821860001015,-0.925537109375,0.34326171875,-0.022216796875,3.32824427480916,4.885496183206107,7.511450381679389,7130,-179,-5,17.62481689453125,-1.671784509311075,-0.0065699999999999995,False,,False,,,,,31
1748.891,1.737579325000297,-0.90771484375,0.3115234375,-0.03369140625,5.404580152671755,3.2671755725190836,6.717557251908397,7087,-191,0,17.518524169921875,-2.290413919578914,0.0,False,,False,,,,,31
1748.891,1.7395802230003028,-0.90771484375,0.3115234375,-0.03369140625,5.404580152671755,3.2671755725190836,6.717557251908397,7087,-191,0,17.518524169921875,-2.290413919578914,0.0,False,,False,,,,,31
1748.896,1.7415845099999387,-0.908447265625,0.2919921875,-0.03076171875,4.122137404580153,3.9083969465648853,9.007633587786259,7036,-222,0,17.3924560546875,-3.0938482534796177,0.0,False,,False,,,,,31
1748.896,1.7435853150000185,-0.908447265625,0.2919921875,-0.03076171875,4.122137404580153,3.9083969465648853,9.007633587786259,7036,-222,0,17.3924560546875,-3.0938482534796177,0.0,False,,False,,,,,31
1748.896,1.7455853609999394,-0.908447265625,0.2919921875,-0.03076171875,4.122137404580153,3.9083969465648853,9.007633587786259,7036,-222,0,17.3924560546875,-3.0938482534796177,0.0,False,,False,,,,,31
1748.901,1.7475906849999774,-0.931396484375,0.30908203125,-0.014404296875,2.4122137404580153,5.740458015267175,9.862595419847327,6979,-258,1,17.251556396484375,-4.083330845411447,0.001314,False,,False,,,,,31
1748.901,1.7495886020001308,-0.931396484375,0.30908203125,-0.014404296875,2.4122137404580153,5.740458015267175,9.862595419847327,6979,-258,1,17.251556396484375,-4.083330845411447,0.001314,False,,False,,,,,31
1748.906,1.751612407000266,-0.94091796875,0.322265625,-0.013916015625,4.122137404580153,4.549618320610687,10.320610687022901,6919,-259,7,17.103240966796875,-5.255416857804048,0.009198,False,,False,,,,,31
1748.906,1.7535928970000896,-0.94091796875,0.322265625,-0.013916015625,4.122137404580153,4.549618320610687,10.320610687022901,6919,-259,7,17.103240966796875,-5.255416857804048,0.009198,False,,False,,,,,31
1748.906,1.7555925179999576,-0.94091796875,0.322265625,-0.013916015625,4.122137404580153,4.549618320610687,10.320610687022901,6919,-259,7,17.103240966796875,-5.255416857804048,0.009198,False,,False,,,,,31
1748.911,1.7575942299999952,-0.914306640625,0.299072265625,-0.027099609375,6.045801526717557,4.2748091603053435,9.923664122137405,6860,-273,4,16.9573974609375,-6.5830909601195335,0.005256,False,,False,,,,,31
1748.911,1.7595948510002017,-0.914306640625,0.299072265625,-0.027099609375,6.045801526717557,4.2748091603053435,9.923664122137405,6860,-273,4,16.9573974609375,-6.5830909601195335,0.005256,False,,False,,,,,31
1748.916,1.761597026000345,-0.9697265625,0.291259765625,-0.010009765625,8.67175572519084,3.7557251908396947,8.580152671755725,6802,-254,4,16.81402587890625,-8.021786905455446,0.005256,False,,False,,,,,31
1748.916,1.7636039799999708,-0.9697265625,0.291259765625,-0.010009765625,8.67175572519084,3.7557251908396947,8.580152671755725,6802,-254,4,16.81402587890625,-8.021786905455446,0.005256,False,,False,,,,,31
1748.916,1.7655993590001344,-0.9697265625,0.291259765625,-0.010009765625,8.67175572519084,3.7557251908396947,8.580152671755725,6802,-254,4,16.81402587890625,-8.021786905455446,0.005256,False,,False,,,,,31
1748.921,1.7676033870002357,-0.962890625,0.261474609375,-0.0185546875,12.519083969465647,2.6259541984732824,6.870229007633587,6755,-203,3,16.697845458984375,-9.5075192482768,0.003942,False,,False,,,,,31
1748.921,1.7696018960000401,-0.962890625,0.261474609375,-0.0185546875,12.519083969465647,2.6259541984732824,6.870229007633587,6755,-203,3,16.697845458984375,-9.5075192482768,0.003942,False,,False,,,,,31
1748.926,1.7716029790003631,-0.964599609375,0.239501953125,-0.015380859375,13.404580152671755,3.0229007633587783,5.129770992366412,6713,-179,1,16.594024658203125,-10.960972085891491,0.001314,False,,False,,,,,31
1748.926,1.7736066180000307,-0.964599609375,0.239501953125,-0.015380859375,13.404580152671755,3.0229007633587783,5.129770992366412,6713,-179,1,16.594024658203125,-10.960972085891491,0.001314,False,,False,,,,,31
1748.926,1.77560633100029,-0.964599609375,0.239501953125,-0.015380859375,13.404580152671755,3.0229007633587783,5.129770992366412,6713,-179,1,16.594024658203125,-10.960972085891491,0.001314,False,,False,,,,,31
1748.931,1.7776077470002747,-1.00048828125,0.258544921875,0.00439453125,14.412213740458014,1.6793893129770991,4.549618320610687,6677,-156,3,16.505035400390625,-12.318001728429042,0.003942,False,,False,,,,,31
1748.931,1.7796086820003438,-1.00048828125,0.258544921875,0.00439453125,14.412213740458014,1.6793893129770991,4.549618320610687,6677,-156,3,16.505035400390625,-12.318001728429042,0.003942,False,,False,,,,,31
1748.9360000000001,1.7816103210002439,-1.003173828125,0.256591796875,0.010498046875,13.49618320610687,0.7022900763358778,3.114503816793893,6644,-141,8,16.4234619140625,-13.538838641265015,0.010512,False,,False,,,,,31
1748.9360000000001,1.7836135520001335,-1.003173828125,0.256591796875,0.010498046875,13.49618320610687,0.7022900763358778,3.114503816793893,6644,-141,8,16.4234619140625,-13.538838641265015,0.010512,False,,False,,,,,31
1748.9360000000001,1.7856128759999592,-1.003173828125,0.256591796875,0.010498046875,13.49618320610687,0.7022900763358778,3.114503816793893,6644,-141,8,16.4234619140625,-13.538838641265015,0.010512,False,,False,,,,,31
1748.941,1.7876139780000813,-0.961181640625,0.276123046875,-0.005859375,11.206106870229007,1.282442748091603,4.244274809160305,6607,-167,1,16.332000732421875,-14.613647536505004,0.001314,False,,False,,,,,31
1748.941,1.7896151899999495,-0.961181640625,0.276123046875,-0.005859375,11.206106870229007,1.282442748091603,4.244274809160305,6607,-167,1,16.332000732421875,-14.613647536505004,0.001314,False,,False,,,,,31
1748.9460000000001,1.7916162370001985,-0.96875,0.283447265625,-0.00341796875,10.687022900763358,-0.3969465648854962,4.0,6568,-168,-2,16.235595703125,-15.56316752198368,-0.002628,False,,False,,,,,31
1748.9460000000001,1.7936189120000563,-0.96875,0.283447265625,-0.00341796875,10.687022900763358,-0.3969465648854962,4.0,6568,-168,-2,16.235595703125,-15.56316752198368,-0.002628,False,,False,,,,,31
1748.9460000000001,1.7956548100000873,-0.96875,0.283447265625,-0.00341796875,10.687022900763358,-0.3969465648854962,4.0,6568,-168,-2,16.235595703125,-15.56316752198368,-0.002628,False,,False,,,,,31
1748.951,1.7976211899999726,-0.9599609375,0.313232421875,-0.011962890625,9.954198473282442,1.099236641221374,5.709923664122138,6524,-192,-4,16.1268310546875,-16.417319049356564,-0.005256,False,,False,,,,,31
1748.951,1.7996218470002532,-0.9599609375,0.313232421875,-0.011962890625,9.954198473282442,1.099236641221374,5.709923664122138,6524,-192,-4,16.1268310546875,-16.417319049356564,-0.005256,False,,False,,,,,31
1748.9560000000001,1.8016275039999528,-0.961669921875,0.316162109375,-0.031494140625,13.374045801526718,0.366412213740458,5.404580152671755,6479,-201,-3,16.015594482421875,-17.202532548474267,-0.003942,False,,False,,,,,31
1748.9560000000001,1.8036264390002543,-0.961669921875,0.316162109375,-0.031494140625,13.374045801526718,0.366412213740458,5.404580152671755,6479,-201,-3,16.015594482421875,-17.202532548474267,-0.003942,False,,False,,,,,31
1748.9560000000001,1.805626206999932,-0.961669921875,0.316162109375,-0.031494140625,13.374045801526718,0.366412213740458,5.404580152671755,6479,-201,-3,16.015594482421875,-17.202532548474267,-0.003942,False,,False,,,,,31
1748.961,1.8076319390002027,-0.951171875,0.304443359375,-0.033203125,14.748091603053435,-1.3435114503816794,5.435114503816794,6435,-200,-2,15.906829833984375,-17.92940024740418,-0.002628,False,,False,,,,,31
1748.961,1.8096293920002609,-0.951171875,0.304443359375,-0.033203125,14.748091603053435,-1.3435114503816794,5.435114503816794,6435,-200,-2,15.906829833984375,-17.92940024740418,-0.002628,False,,False,,,,,31
1748.9660000000001,1.811630938000235,-0.937744140625,0.297607421875,-0.03759765625,13.221374045801527,0.030534351145038167,5.83206106870229,6388,-208,1,15.7906494140625,-18.600472988086743,0.001314,False,,False,,,,,31
1748.9660000000001,1.8136341330000505,-0.937744140625,0.297607421875,-0.03759765625,13.221374045801527,0.030534351145038167,5.83206106870229,6388,-208,1,15.7906494140625,-18.600472988086743,0.001314,False,,False,,,,,31
1748.9660000000001,1.8156330860001617,-0.937744140625,0.297607421875,-0.03759765625,13.221374045801527,0.030534351145038167,5.83206106870229,6388,-208,1,15.7906494140625,-18.600472988086743,0.001314,False,,False,,,,,31
1748.971,1.8176345770002627,-0.96630859375,0.29833984375,-0.02099609375,14.870229007633586,-1.0381679389312977,5.526717557251908,6344,-195,-6,15.681884765625,-19.218694574865395,-0.007884,False,,False,,,,,31
1748.971,1.8196361230002367,-0.96630859375,0.29833984375,-0.02099609375,14.870229007633586,-1.0381679389312977,5.526717557251908,6344,-195,-6,15.681884765625,-19.218694574865395,-0.007884,False,,False,,,,,31
1748.976,1.8216379280002002,-0.973876953125,0.290771484375,-0.0185546875,19.938931297709924,-1.3129770992366412,3.847328244274809,6309,-155,-6,15.595367431640625,-19.762228088573483,-0.007884,False,,False,,,,,31
1748.976,1.823641084999963,-0.973876953125,0.290771484375,-0.0185546875,19.938931297709924,-1.3129770992366412,3.847328244274809,6309,-155,-6,15.595367431640625,-19.762228088573483,-0.007884,False,,False,,,,,31
1748.976,1.8256404090002434,-0.973876953125,0.290771484375,-0.0185546875,19.938931297709924,-1.3129770992366412,3.847328244274809,6309,-155,-6,15.595367431640625,-19.762228088573483,-0.007884,False,,False,,,,,31
1748.981,1.8276419740000165,-0.93408203125,0.252197265625,-0.027587890625,18.290076335877863,-1.984732824427481,2.9618320610687023,6270,-168,-1,15.49896240234375,-20.204921525984368,-0.001314,False,,False,,,,,31
1748.981,1.8296421130003182,-0.93408203125,0.252197265625,-0.027587890625,18.290076335877863,-1.984732824427481,2.9618320610687023,6270,-168,-1,15.49896240234375,-20.204921525984368,-0.001314,False,,False,,,,,31
1748.986,1.8316439730001548,-0.9677734375,0.270263671875,-0.001953125,18.045801526717558,-1.7404580152671756,3.3893129770992365,6234,-166,-2,15.40997314453125,-20.549618306583813,-0.002628,False,,False,,,,,32
1748.986,1.833648094000182,-0.9677734375,0.270263671875,-0.001953125,18.045801526717558,-1.7404580152671756,3.3893129770992365,6234,-166,-2,15.40997314453125,-20.549618306583813,-0.002628,False,,False,,,,,32
1748.986,1.8356465100000605,-0.9677734375,0.270263671875,-0.001953125,18.045801526717558,-1.7404580152671756,3.3893129770992365,6234,-166,-2,15.40997314453125,-20.549618306583813,-0.002628,False,,False,,,,,32
1748.991,1.83764840799995,-0.9345703125,0.270751953125,-0.016845703125,16.0,-1.129770992366412,3.4198473282442747,6196,-166,2,15.3160400390625,-20.807280556381997,0.002628,False,,False,,,,,32
1748.991,1.8396923790000983,-0.9345703125,0.270751953125,-0.016845703125,16.0,-1.129770992366412,3.4198473282442747,6196,-166,2,15.3160400390625,-20.807280556381997,0.002628,False,,False,,,,,32
1748.996,1.8416512040003,-0.9228515625,0.3046875,-0.0234375,15.633587786259541,-1.2213740458015268,5.221374045801526,6151,-199,-3,15.204803466796875,-21.00267044487395,-0.003942,False,,False,,,,,32
1748.996,1.8436541949999992,-0.9228515625,0.3046875,-0.0234375,15.633587786259541,-1.2213740458015268,5.221374045801526,6151,-199,-3,15.204803466796875,-21.00267044487395,-0.003942,False,,False,,,,,32
1748.996,1.8456539440003326,-0.9228515625,0.3046875,-0.0234375,15.633587786259541,-1.2213740458015268,5.221374045801526,6151,-199,-3,15.204803466796875,-21.00267044487395,-0.003942,False,,False,,,,,32
1749.001,1.8476558980000846,-0.93408203125,0.32861328125,-0.017578125,15.786259541984732,-2.1374045801526718,6.564885496183206,6101,-223,-2,15.081207275390625,-21.180697082816124,-0.002628,False,,False,,,,,32
1749.001,1.849657388000196,-0.93408203125,0.32861328125,-0.017578125,15.786259541984732,-2.1374045801526718,6.564885496183206,6101,-223,-2,15.081207275390625,-21.180697082816124,-0.002628,False,,False,,,,,32
1749.006,1.851658583000244,-0.90185546875,0.29638671875,-0.037353515625,15.572519083969466,-2.0763358778625953,6.076335877862595,6046,-237,-2,14.94525146484375,-21.380999594529168,-0.002628,False,,False,,,,,32
1749.006,1.8536616470000808,-0.90185546875,0.29638671875,-0.037353515625,15.572519083969466,-2.0763358778625953,6.076335877862595,6046,-237,-2,14.94525146484375,-21.380999594529168,-0.002628,False,,False,,,,,32
1749.006,1.8556611190001604,-0.90185546875,0.29638671875,-0.037353515625,15.572519083969466,-2.0763358778625953,6.076335877862595,6046,-237,-2,14.94525146484375,-21.380999594529168,-0.002628,False,,False,,,,,32
1749.011,1.8576623880003353,-0.94873046875,0.336669921875,-0.022216796875,17.34351145038168,-1.5877862595419847,7.297709923664121,5989,-246,2,14.804351806640625,-21.627487902250273,0.002628,False,,False,,,,,32
1749.011,1.8596636740003305,-0.94873046875,0.336669921875,-0.022216796875,17.34351145038168,-1.5877862595419847,7.297709923664121,5989,-246,2,14.804351806640625,-21.627487902250273,0.002628,False,,False,,,,,32
1749.016,1.8616651840002305,-0.907958984375,0.291015625,-0.031005859375,17.98473282442748,-2.259541984732824,6.99236641221374,5928,-273,10,14.653564453125,-21.932347856517204,0.013139999999999999,False,,False,,,,,31
1749.016,1.8636687299999721,-0.907958984375,0.291015625,-0.031005859375,17.98473282442748,-2.259541984732824,6.99236641221374,5928,-273,10,14.653564453125,-21.932347856517204,0.013139999999999999,False,,False,,,,,31
1749.016,1.8656688129999566,-0.907958984375,0.291015625,-0.031005859375,17.98473282442748,-2.259541984732824,6.99236641221374,5928,-273,10,14.653564453125,-21.932347856517204,0.013139999999999999,False,,False,,,,,31
1749.021,1.867670377000195,-0.953857421875,0.303466796875,-0.011474609375,19.14503816793893,-1.7709923664122136,7.236641221374046,5869,-260,5,14.507720947265625,-22.295983092917123,0.0065699999999999995,False,,False,,,,,31
1749.021,1.8696714980001161,-0.953857421875,0.303466796875,-0.011474609375,19.14503816793893,-1.7709923664122136,7.236641221374046,5869,-260,5,14.507720947265625,-22.295983092917123,0.0065699999999999995,False,,False,,,,,31
1749.026,1.8716738770003758,-0.935546875,0.307373046875,-0.015869140625,20.15267175572519,-2.2900763358778624,8.244274809160306,5809,-259,-2,14.359405517578125,-22.705346537177842,-0.002628,False,,False,,,,,31
1749.026,1.873677090000001,-0.935546875,0.307373046875,-0.015869140625,20.15267175572519,-2.2900763358778624,8.244274809160306,5809,-259,-2,14.359405517578125,-22.705346537177842,-0.002628,False,,False,,,,,31
1749.026,1.8756764879999537,-0.935546875,0.307373046875,-0.015869140625,20.15267175572519,-2.2900763358778624,8.244274809160306,5809,-259,-2,14.359405517578125,-22.705346537177842,-0.002628,False,,False,,,,,31
1749.031,1.8776785520003614,-0.925537109375,0.276611328125,-0.020751953125,20.0,-3.297709923664122,7.8473282442748085,5750,-264,-5,14.21356201171875,-23.14527195776169,-0.0065699999999999995,False,,False,,,,,31
1749.031,1.8796795800003565,-0.925537109375,0.276611328125,-0.020751953125,20.0,-3.297709923664122,7.8473282442748085,5750,-264,-5,14.21356201171875,-23.14527195776169,-0.0065699999999999995,False,,False,,,,,31
1749.036,1.8816850329999397,-0.950439453125,0.30224609375,-0.003662109375,18.381679389312975,-2.1374045801526718,9.282442748091603,5687,-279,-6,14.057830810546875,-23.60978173759534,-0.007884,False,,False,,,,,31
1749.036,1.883683635000125,-0.950439453125,0.30224609375,-0.003662109375,18.381679389312975,-2.1374045801526718,9.282442748091603,5687,-279,-6,14.057830810546875,-23.60978173759534,-0.007884,False,,False,,,,,31
1749.036,1.8856873110003107,-0.950439453125,0.30224609375,-0.003662109375,18.381679389312975,-2.1374045801526718,9.282442748091603,5687,-279,-6,14.057830810546875,-23.60978173759534,-0.007884,False,,False,,,,,31
1749.041,1.8876858570001787,-0.92919921875,0.307373046875,-0.016845703125,17.00763358778626,-3.2061068702290076,10.198473282442748,5621,-299,-1,13.894683837890625,-24.106048907637746,-0.001314,False,,False,,,,,31
1749.041,1.8896871070000998,-0.92919921875,0.307373046875,-0.016845703125,17.00763358778626,-3.2061068702290076,10.198473282442748,5621,-299,-1,13.894683837890625,-24.106048907637746,-0.001314,False,,False,,,,,31
1749.046,1.8916878009999891,-0.933837890625,0.3076171875,-0.02099609375,17.64885496183206,-3.66412213740458,10.412213740458014,5550,-306,7,13.71917724609375,-24.648571058013744,0.009198,False,,False,,,,,32
1749.046,1.8936892360002275,-0.933837890625,0.3076171875,-0.02099609375,17.64885496183206,-3.66412213740458,10.412213740458014,5550,-306,7,13.71917724609375,-24.648571058013744,0.009198,False,,False,,,,,32
1749.046,1.89569130100017,-0.933837890625,0.3076171875,-0.02099609375,17.64885496183206,-3.66412213740458,10.412213740458014,5550,-306,7,13.71917724609375,-24.648571058013744,0.009198,False,,False,,,,,32
1749.051,1.8976917730001333,-0.92138671875,0.322265625,-0.028076171875,18.106870229007633,-3.633587786259542,11.541984732824426,5476,-329,4,13.5362548828125,-25.250605726101256,0.005256,False,,False,,,,,32
1749.051,1.8996935230002236,-0.92138671875,0.322265625,-0.028076171875,18.106870229007633,-3.633587786259542,11.541984732824426,5476,-329,4,13.5362548828125,-25.250605726101256,0.005256,False,,False,,,,,32
1749.056,1.9016952540000602,-0.9384765625,0.309326171875,-0.026123046875,19.175572519083968,-4.427480916030534,11.32824427480916,5402,-327,-4,13.35333251953125,-25.91343721655827,-0.005256,False,,False,,,,,31
1749.056,1.903698170000098,-0.9384765625,0.309326171875,-0.026123046875,19.175572519083968,-4.427480916030534,11.32824427480916,5402,-327,-4,13.35333251953125,-25.91343721655827,-0.005256,False,,False,,,,,31
1749.056,1.9056974200002514,-0.9384765625,0.309326171875,-0.026123046875,19.175572519083968,-4.427480916030534,11.32824427480916,5402,-327,-4,13.35333251953125,-25.91343721655827,-0.005256,False,,False,,,,,31
1749.0610000000001,1.9076990590001515,-0.93115234375,0.303955078125,-0.03759765625,19.908396946564885,-4.427480916030534,11.114503816793892,5327,-320,-1,13.167938232421875,-26.624726449593222,-0.001314,False,,False,,,,,31
1749.0610000000001,1.909700420000263,-0.93115234375,0.303955078125,-0.03759765625,19.908396946564885,-4.427480916030534,11.114503816793892,5327,-320,-1,13.167938232421875,-26.624726449593222,-0.001314,False,,False,,,,,31
1749.066,1.9117017250000572,-0.94189453125,0.307373046875,-0.02294921875,20.213740458015266,-5.465648854961832,11.022900763358779,5255,-319,0,12.989959716796875,-27.364488859140465,0.0,False,,False,,,,,32
1749.066,1.9137029930002427,-0.94189453125,0.307373046875,-0.02294921875,20.213740458015266,-5.465648854961832,11.022900763358779,5255,-319,0,12.989959716796875,-27.364488859140465,0.0,False,,False,,,,,32
1749.066,1.915704040000037,-0.94189453125,0.307373046875,-0.02294921875,20.213740458015266,-5.465648854961832,11.022900763358779,5255,-319,0,12.989959716796875,-27.364488859140465,0.0,False,,False,,,,,32
1749.0710000000001,1.9177063080001062,-0.936279296875,0.310791015625,-0.021240234375,20.183206106870227,-5.068702290076335,11.66412213740458,5178,-339,0,12.79962158203125,-28.117371754246253,0.0,False,,False,,,,,32
1749.0710000000001,1.9197068540001965,-0.936279296875,0.310791015625,-0.021240234375,20.183206106870227,-5.068702290076335,11.66412213740458,5178,-339,0,12.79962158203125,-28.117371754246253,0.0,False,,False,,,,,32
1749.076,1.921708845000012,-0.93359375,0.314697265625,-0.022705078125,19.877862595419845,-6.1679389312977095,11.511450381679388,5104,-327,-2,12.61669921875,-28.87749408752849,-0.002628,False,,False,,,,,31
1749.076,1.9237116310000602,-0.93359375,0.314697265625,-0.022705078125,19.877862595419845,-6.1679389312977095,11.511450381679388,5104,-327,-2,12.61669921875,-28.87749408752849,-0.002628,False,,False,,,,,31
1749.076,1.9257115850000446,-0.93359375,0.314697265625,-0.022705078125,19.877862595419845,-6.1679389312977095,11.511450381679388,5104,-327,-2,12.61669921875,-28.87749408752849,-0.002628,False,,False,,,,,31
1749.0810000000001,1.927716686000167,-0.922607421875,0.3330078125,-0.021240234375,19.236641221374047,-5.801526717557252,12.091603053435113,5025,-351,-1,12.421417236328125,-29.639827478271034,-0.001314,False,,False,,,,,31
1749.0810000000001,1.9297143070002676,-0.922607421875,0.3330078125,-0.021240234375,19.236641221374047,-5.801526717557252,12.091603053435113,5025,-351,-1,12.421417236328125,-29.639827478271034,-0.001314,False,,False,,,,,31
1749.086,1.9317163710002205,-0.9326171875,0.3232421875,-0.021240234375,20.82442748091603,-7.236641221374046,11.145038167938932,4947,-334,2,12.228607177734375,-30.403711235753008,0.002628,False,,False,,,,,31
1749.086,1.9337190660003216,-0.9326171875,0.3232421875,-0.021240234375,20.82442748091603,-7.236641221374046,11.145038167938932,4947,-334,2,12.228607177734375,-30.403711235753008,0.002628,False,,False,,,,,31
1749.086,1.9357184270002108,-0.9326171875,0.3232421875,-0.021240234375,20.82442748091603,-7.236641221374046,11.145038167938932,4947,-334,2,12.228607177734375,-30.403711235753008,0.002628,False,,False,,,,,31
1749.0910000000001,1.9377198430001954,-0.936767578125,0.33056640625,-0.02392578125,23.63358778625954,-6.931297709923664,11.17557251908397,4874,-317,3,12.04815673828125,-31.1542457487524,0.003942,False,,False,,,,,31
1749.0910000000001,1.9397208710001905,-0.936767578125,0.33056640625,-0.02392578125,23.63358778625954,-6.931297709923664,11.17557251908397,4874,-317,3,12.04815673828125,-31.1542457487524,0.003942,False,,False,,,,,31
1749.096,1.941722843000207,-0.942626953125,0.306396484375,-0.02978515625,25.251908396946565,-8.580152671755725,9.709923664122137,4804,-304,-6,11.8751220703125,-31.857664672987575,-0.007884,False,,False,,,,,32
1749.096,1.9437230920002548,-0.942626953125,0.306396484375,-0.02978515625,25.251908396946565,-8.580152671755725,9.709923664122137,4804,-304,-6,11.8751220703125,-31.857664672987575,-0.007884,False,,False,,,,,32
1749.096,1.9457251010003347,-0.942626953125,0.306396484375,-0.02978515625,25.251908396946565,-8.580152671755725,9.709923664122137,4804,-304,-6,11.8751220703125,-31.857664672987575,-0.007884,False,,False,,,,,32
1749.101,1.94772575900015,-0.935302734375,0.298583984375,-0.029052734375,24.702290076335878,-8.51908396946565,9.526717557251908,4733,-311,0,11.699615478515625,-32.49354401189109,0.0,False,,False,,,,,32
1749.101,1.9497273420001875,-0.935302734375,0.298583984375,-0.029052734375,24.702290076335878,-8.51908396946565,9.526717557251908,4733,-311,0,11.699615478515625,-32.49354401189109,0.0,False,,False,,,,,32
1749.106,1.951728481000373,-0.933837890625,0.29638671875,-0.024658203125,24.15267175572519,-9.16030534351145,9.129770992366412,4661,-313,-3,11.521636962890625,-33.06366863943193,-0.003942,False,,False,,,,,32
1749.106,1.9537333600001148,-0.933837890625,0.29638671875,-0.024658203125,24.15267175572519,-9.16030534351145,9.129770992366412,4661,-313,-3,11.521636962890625,-33.06366863943193,-0.003942,False,,False,,,,,32
1749.106,1.955731702000321,-0.933837890625,0.29638671875,-0.024658203125,24.15267175572519,-9.16030534351145,9.129770992366412,4661,-313,-3,11.521636962890625,-33.06366863943193,-0.003942,False,,False,,,,,32
1749.111,1.9577328600003057,-0.9482421875,0.319091796875,-0.024169921875,23.938931297709924,-9.465648854961831,9.557251908396946,4587,-338,-8,11.338714599609375,-33.579437910671835,-0.010512,False,,False,,,,,32
1749.111,1.9597381090002273,-0.9482421875,0.319091796875,-0.024169921875,23.938931297709924,-9.465648854961831,9.557251908396946,4587,-338,-8,11.338714599609375,-33.579437910671835,-0.010512,False,,False,,,,,32
1749.116,1.9617354520000845,-0.953125,0.3369140625,-0.02490234375,25.251908396946565,-10.80916030534351,8.82442748091603,4511,-336,1,11.150848388671875,-34.054763595995176,0.001314,False,,False,,,,,31
1749.116,1.9637394790001963,-0.953125,0.3369140625,-0.02490234375,25.251908396946565,-10.80916030534351,8.82442748091603,4511,-336,1,11.150848388671875,-34.054763595995176,0.001314,False,,False,,,,,31
1749.116,1.9657379700001911,-0.953125,0.3369140625,-0.02490234375,25.251908396946565,-10.80916030534351,8.82442748091603,4511,-336,1,11.150848388671875,-34.054763595995176,0.001314,False,,False,,,,,31
1749.121,1.967739886000345,-0.962158203125,0.34033203125,-0.027587890625,28.183206106870227,-11.053435114503817,8.580152671755725,4439,-313,4,10.972869873046875,-34.49292574861984,0.005256,False,,False,,,,,31
1749.121,1.9697411360002661,-0.962158203125,0.34033203125,-0.027587890625,28.183206106870227,-11.053435114503817,8.580152671755725,4439,-313,4,10.972869873046875,-34.49292574861984,0.005256,False,,False,,,,,31
1749.126,1.971741793000092,-0.952880859375,0.319091796875,-0.027099609375,29.526717557251906,-11.938931297709923,7.908396946564885,4372,-297,9,10.8072509765625,-34.873932192662025,0.011826,False,,False,,,,,32
1749.126,1.9737437100002353,-0.952880859375,0.319091796875,-0.027099609375,29.526717557251906,-11.938931297709923,7.908396946564885,4372,-297,9,10.8072509765625,-34.873932192662025,0.011826,False,,False,,,,,32
1749.126,1.9757432190003783,-0.952880859375,0.319091796875,-0.027099609375,29.526717557251906,-11.938931297709923,7.908396946564885,4372,-297,9,10.8072509765625,-34.873932192662025,0.011826,False,,False,,,,,32
1749.131,1.977744969000014,-0.94189453125,0.310546875,-0.022216796875,28.97709923664122,-12.67175572519084,8.274809160305344,4300,-314,3,10.6292724609375,-35.185454852729876,0.003942,False,,False,,,,,32
1749.131,1.9797464779999245,-0.94189453125,0.310546875,-0.022216796875,28.97709923664122,-12.67175572519084,8.274809160305344,4300,-314,3,10.6292724609375,-35.185454852729876,0.003942,False,,False,,,,,32
1749.136,1.9817485430003217,-0.932861328125,0.312744140625,-0.017578125,26.045801526717558,-13.038167938931297,8.610687022900763,4225,-335,5,10.443878173828125,-35.44861805369254,0.0065699999999999995,False,,False,,,,,32
1749.136,1.9837495890001264,-0.932861328125,0.312744140625,-0.017578125,26.045801526717558,-13.038167938931297,8.610687022900763,4225,-335,5,10.443878173828125,-35.44861805369254,0.0065699999999999995,False,,False,,,,,32
1749.136,1.9857514130003437,-0.932861328125,0.312744140625,-0.017578125,26.045801526717558,-13.038167938931297,8.610687022900763,4225,-335,5,10.443878173828125,-35.44861805369254,0.0065699999999999995,False,,False,,,,,32
1749.141,1.9877525140000216,-0.93115234375,0.335693359375,-0.016845703125,26.870229007633586,-12.916030534351144,9.801526717557252,4143,-360,1,10.241180419921875,-35.69971230463095,0.001314,False,,False,,,,,32
1749.141,1.9897532449999744,-0.93115234375,0.335693359375,-0.016845703125,26.870229007633586,-12.916030534351144,9.801526717557252,4143,-360,1,10.241180419921875,-35.69971230463095,0.001314,False,,False,,,,,32
1749.146,1.991755273000308,-0.914794921875,0.328857421875,-0.02294921875,26.931297709923662,-13.435114503816793,9.954198473282442,4059,-370,-4,10.033538818359375,-35.971084697602194,-0.005256,False,,False,,,,,31
1749.146,1.993755615000282,-0.914794921875,0.328857421875,-0.02294921875,26.931297709923662,-13.435114503816793,9.954198473282442,4059,-370,-4,10.033538818359375,-35.971084697602194,-0.005256,False,,False,,,,,31
1749.146,1.99575693900033,-0.914794921875,0.328857421875,-0.02294921875,26.931297709923662,-13.435114503816793,9.954198473282442,4059,-370,-4,10.033538818359375,-35.971084697602194,-0.005256,False,,False,,,,,31
1749.151,1.9977586889999657,-0.9267578125,0.325439453125,-0.02001953125,29.862595419847327,-14.13740458015267,9.557251908396946,3977,-359,-4,9.830841064453125,-36.271616818990466,-0.005256,False,,False,,,,,31
1749.151,1.999762624000141,-0.9267578125,0.325439453125,-0.02001953125,29.862595419847327,-14.13740458015267,9.557251908396946,3977,-359,-4,9.830841064453125,-36.271616818990466,-0.005256,False,,False,,,,,31
1749.156,2.0017608370003472,-0.918212890625,0.293701171875,-0.015869140625,32.030534351145036,-14.473282442748092,9.374045801526718,3896,-356,1,9.630615234375,-36.58683569094948,0.001314,False,,False,,,,,31
1749.156,2.0037612529999933,-0.918212890625,0.293701171875,-0.015869140625,32.030534351145036,-14.473282442748092,9.374045801526718,3896,-356,1,9.630615234375,-36.58683569094948,0.001314,False,,False,,,,,31
1749.156,2.0057639660003588,-0.918212890625,0.293701171875,-0.015869140625,32.030534351145036,-14.473282442748092,9.374045801526718,3896,-356,1,9.630615234375,-36.58683569094948,0.001314,False,,False,,,,,31
1749.161,2.0077642900000683,-0.91015625,0.286376953125,-0.011962890625,30.015267175572518,-14.045801526717558,10.351145038167939,3811,-387,-1,9.420501708984375,-36.90978355155573,-0.001314,False,,False,,,,,31
1749.161,2.0097655399999894,-0.91015625,0.286376953125,-0.011962890625,30.015267175572518,-14.045801526717558,10.351145038167939,3811,-387,-1,9.420501708984375,-36.90978355155573,-0.001314,False,,False,,,,,31
1749.166,2.0117676790000587,-0.908203125,0.294921875,-0.0087890625,29.190839694656486,-14.442748091603052,10.564885496183205,3721,-397,-3,9.198028564453125,-37.25600957245543,-0.003942,False,,False,,,,,32
1749.166,2.0137711880001916,-0.908203125,0.294921875,-0.0087890625,29.190839694656486,-14.442748091603052,10.564885496183205,3721,-397,-3,9.198028564453125,-37.25600957245543,-0.003942,False,,False,,,,,32
1749.166,2.015770474999954,-0.908203125,0.294921875,-0.0087890625,29.190839694656486,-14.442748091603052,10.564885496183205,3721,-397,-3,9.198028564453125,-37.25600957245543,-0.003942,False,,False,,,,,32
1749.171,2.017771558000277,-0.906982421875,0.318603515625,-0.008056640625,29.61832061068702,-13.893129770992365,11.755725190839694,3627,-412,4,8.965667724609375,-37.648937035512986,0.005256,False,,False,,,,,32
1749.171,2.0197736039999654,-0.906982421875,0.318603515625,-0.008056640625,29.61832061068702,-13.893129770992365,11.755725190839694,3627,-412,4,8.965667724609375,-37.648937035512986,0.005256,False,,False,,,,,32
1749.176,2.021774724000352,-0.931396484375,0.313720703125,-0.014892578125,33.95419847328244,-14.442748091603052,10.80916030534351,3536,-401,7,8.74072265625,-38.093174898182575,0.009198,False,,False,,,,,32
1749.176,2.023775714000294,-0.931396484375,0.313720703125,-0.014892578125,33.95419847328244,-14.442748091603052,10.80916030534351,3536,-401,7,8.74072265625,-38.093174898182575,0.009198,False,,False,,,,,32
1749.176,2.0257769830000143,-0.931396484375,0.313720703125,-0.014892578125,33.95419847328244,-14.442748091603052,10.80916030534351,3536,-401,7,8.74072265625,-38.093174898182575,0.009198,False,,False,,,,,32
1749.181,2.0277785470002527,-0.92236328125,0.281982421875,-0.022705078125,34.778625954198475,-14.442748091603052,10.381679389312977,3447,-396,1,8.520721435546875,-38.56677131703666,0.001314,False,,False,,,,,32
1749.181,2.0297790009999517,-0.92236328125,0.281982421875,-0.022705078125,34.778625954198475,-14.442748091603052,10.381679389312977,3447,-396,1,8.520721435546875,-38.56677131703666,0.001314,False,,False,,,,,32
1749.1860000000001,2.03178080600037,-0.937744140625,0.28173828125,-0.016357421875,34.25954198473282,-14.076335877862595,10.931297709923664,3353,-414,0,8.288360595703125,-39.0545043105118,0.0,False,,False,,,,,32
1749.1860000000001,2.0337819640003545,-0.937744140625,0.28173828125,-0.016357421875,34.25954198473282,-14.076335877862595,10.931297709923664,3353,-414,0,8.288360595703125,-39.0545043105118,0.0,False,,False,,,,,32
1749.1860000000001,2.035782806000043,-0.937744140625,0.28173828125,-0.016357421875,34.25954198473282,-14.076335877862595,10.931297709923664,3353,-414,0,8.288360595703125,-39.0545043105118,0.0,False,,False,,,,,32
1749.191,2.0377846670003237,-0.936279296875,0.273193359375,-0.018798828125,33.038167938931295,-13.465648854961831,11.053435114503817,3260,-413,-2,8.0584716796875,-39.559540059772914,-0.002628,False,,False,,,,,32
1749.191,2.0397859350000545,-0.936279296875,0.273193359375,-0.018798828125,33.038167938931295,-13.465648854961831,11.053435114503817,3260,-413,-2,8.0584716796875,-39.559540059772914,-0.002628,False,,False,,,,,32
1749.1960000000001,2.041792481000357,-0.922119140625,0.2890625,-0.025634765625,34.595419847328245,-13.282442748091603,11.66412213740458,3165,-419,1,7.823638916015625,-40.08069756498631,0.001314,False,,False,,,,,32
1749.1960000000001,2.0437892500003727,-0.922119140625,0.2890625,-0.025634765625,34.595419847328245,-13.282442748091603,11.66412213740458,3165,-419,1,7.823638916015625,-40.08069756498631,0.001314,False,,False,,,,,32
1749.1960000000001,2.0457900549999977,-0.922119140625,0.2890625,-0.025634765625,34.595419847328245,-13.282442748091603,11.66412213740458,3165,-419,1,7.823638916015625,-40.08069756498631,0.001314,False,,False,,,,,32
1749.201,2.0477917490002255,-0.946044921875,0.30126953125,-0.017578125,36.76335877862595,-12.946564885496183,11.633587786259541,3073,-398,2,7.596221923828125,-40.6078020424569,0.002628,False,,False,,,,,32
1749.201,2.049793499000316,-0.946044921875,0.30126953125,-0.017578125,36.76335877862595,-12.946564885496183,11.633587786259541,3073,-398,2,7.596221923828125,-40.6078020424569,0.002628,False,,False,,,,,32
1749.2060000000001,2.051795138000216,-0.9443359375,0.276611328125,-0.025146484375,37.862595419847324,-12.854961832061068,11.297709923664122,2983,-392,2,7.373748779296875,-41.121506172810385,0.002628,False,,False,,,,,32
1749.2060000000001,2.0537961650002217,-0.9443359375,0.276611328125,-0.025146484375,37.862595419847324,-12.854961832061068,11.297709923664122,2983,-392,2,7.373748779296875,-41.121506172810385,0.002628,False,,False,,,,,32
1749.2060000000001,2.055798545000016,-0.9443359375,0.276611328125,-0.025146484375,37.862595419847324,-12.854961832061068,11.297709923664122,2983,-392,2,7.373748779296875,-41.121506172810385,0.002628,False,,False,,,,,32
1749.211,2.0577994430000217,-0.96435546875,0.285888671875,-0.019287109375,37.9236641221374,-12.244274809160306,11.511450381679388,2895,-394,-3,7.156219482421875,-41.60043534992246,-0.003942,False,,False,,,,,32
1749.211,2.059800785000334,-0.96435546875,0.285888671875,-0.019287109375,37.9236641221374,-12.244274809160306,11.511450381679388,2895,-394,-3,7.156219482421875,-41.60043534992246,-0.003942,False,,False,,,,,32
1749.2160000000001,2.0618022759999803,-0.97509765625,0.285888671875,-0.00634765625,39.083969465648856,-10.595419847328245,12.030534351145038,2808,-377,-1,6.941162109375,-42.030779929298205,-0.001314,False,,False,,,,,32
1749.2160000000001,2.0638043399999333,-0.97509765625,0.285888671875,-0.00634765625,39.083969465648856,-10.595419847328245,12.030534351145038,2808,-377,-1,6.941162109375,-42.030779929298205,-0.001314,False,,False,,,,,32
1749.2160000000001,2.0658056460001717,-0.97509765625,0.285888671875,-0.00634765625,39.083969465648856,-10.595419847328245,12.030534351145038,2808,-377,-1,6.941162109375,-42.030779929298205,-0.001314,False,,False,,,,,32
1749.221,2.0678065440001774,-0.965576171875,0.284912109375,-0.016357421875,39.38931297709924,-10.198473282442748,12.6412213740458,2722,-379,0,6.72857666015625,-42.40526357004813,0.0,False,,False,,,,,32
1749.221,2.0698079230000985,-0.965576171875,0.284912109375,-0.016357421875,39.38931297709924,-10.198473282442748,12.6412213740458,2722,-379,0,6.72857666015625,-42.40526357004813,0.0,False,,False,,,,,32
1749.226,2.0718088030002946,-0.97265625,0.279296875,-0.01708984375,41.282442748091604,-10.778625954198473,12.396946564885496,2640,-354,9,6.52587890625,-42.71502288687281,0.011826,False,,False,,,,,32
1749.226,2.0738109600001735,-0.97265625,0.279296875,-0.01708984375,41.282442748091604,-10.778625954198473,12.396946564885496,2640,-354,9,6.52587890625,-42.71502288687281,0.011826,False,,False,,,,,32
1749.226,2.075812247000158,-0.97265625,0.279296875,-0.01708984375,41.282442748091604,-10.778625954198473,12.396946564885496,2640,-354,9,6.52587890625,-42.71502288687281,0.011826,False,,False,,,,,32
1749.231,2.0778133300000263,-0.98486328125,0.275634765625,-0.019775390625,43.57251908396946,-10.290076335877862,12.6412213740458,2564,-329,-2,6.3380126953125,-42.939251226445926,-0.002628,False,,False,,,,,32
1749.231,2.079815857000085,-0.98486328125,0.275634765625,-0.019775390625,43.57251908396946,-10.290076335877862,12.6412213740458,2564,-329,-2,6.3380126953125,-42.939251226445926,-0.002628,False,,False,,,,,32
1749.236,2.0818170150000697,-1.016357421875,0.2548828125,-0.02734375,44.274809160305345,-9.83206106870229,13.221374045801527,2492,-319,-6,6.1600341796875,-43.05281618338125,-0.007884,False,,False,,,,,32
1749.236,2.083818820000033,-1.016357421875,0.2548828125,-0.02734375,44.274809160305345,-9.83206106870229,13.221374045801527,2492,-319,-6,6.1600341796875,-43.05281618338125,-0.007884,False,,False,,,,,32
1749.236,2.085821199000293,-1.016357421875,0.2548828125,-0.02734375,44.274809160305345,-9.83206106870229,13.221374045801527,2492,-319,-6,6.1600341796875,-43.05281618338125,-0.007884,False,,False,,,,,32
1749.241,2.08782109699996,-1.01513671875,0.263916015625,-0.025390625,43.083969465648856,-9.282442748091603,13.618320610687022,2422,-310,-4,5.98699951171875,-43.04344253581452,-0.005256,False,,False,,,,,32
1749.241,2.089822366000135,-1.01513671875,0.263916015625,-0.025390625,43.083969465648856,-9.282442748091603,13.618320610687022,2422,-310,-4,5.98699951171875,-43.04344253581452,-0.005256,False,,False,,,,,32
1749.246,2.0918237820001195,-1.0224609375,0.29443359375,-0.027099609375,43.725190839694655,-9.038167938931297,14.65648854961832,2356,-297,-10,5.8238525390625,-42.909796687788976,-0.013139999999999999,False,,False,,,,,32
1749.246,2.0938297910001893,-1.0224609375,0.29443359375,-0.027099609375,43.725190839694655,-9.038167938931297,14.65648854961832,2356,-297,-10,5.8238525390625,-42.909796687788976,-0.013139999999999999,False,,False,,,,,32
1749.251,2.095826393000152,-1.005859375,0.302734375,-0.03857421875,44.213740458015266,-8.030534351145038,16.0,2288,-296,-5,5.65576171875,-42.65972449123221,-0.0065699999999999995,False,,False,,,,,32
1749.251,2.097828569000285,-1.005859375,0.302734375,-0.03857421875,44.213740458015266,-8.030534351145038,16.0,2288,-296,-5,5.65576171875,-42.65972449123221,-0.0065699999999999995,False,,False,,,,,32
1749.251,2.09982972600028,-1.005859375,0.302734375,-0.03857421875,44.213740458015266,-8.030534351145038,16.0,2288,-296,-5,5.65576171875,-42.65972449123221,-0.0065699999999999995,False,,False,,,,,32
1749.256,2.101831105000201,-1.031005859375,0.29150390625,-0.05029296875,47.358778625954194,-7.419847328244274,14.900763358778626,2225,-271,0,5.500030517578125,-42.306852498534425,0.0,False,,False,,,,,32
1749.256,2.10383229900026,-1.031005859375,0.29150390625,-0.05029296875,47.358778625954194,-7.419847328244274,14.900763358778626,2225,-271,0,5.500030517578125,-42.306852498534425,0.0,False,,False,,,,,32
1749.261,2.105834975000107,-1.033203125,0.300537109375,-0.050048828125,49.19083969465649,-6.534351145038167,14.961832061068701,2171,-241,7,5.366546630859375,-41.842591791808665,0.009198,False,,False,,,,,32
1749.261,2.107835355000134,-1.033203125,0.300537109375,-0.050048828125,49.19083969465649,-6.534351145038167,14.961832061068701,2171,-241,7,5.366546630859375,-41.842591791808665,0.009198,False,,False,,,,,32
1749.261,2.1098373270001503,-1.033203125,0.300537109375,-0.050048828125,49.19083969465649,-6.534351145038167,14.961832061068701,2171,-241,7,5.366546630859375,-41.842591791808665,0.009198,False,,False,,,,,32
1749.266,2.111838836000061,-1.051025390625,0.31298828125,-0.048828125,50.68702290076336,-6.809160305343511,14.931297709923664,2124,-208,7,5.2503662109375,-41.23808899021254,0.009198,False,,False,,,,,32
1749.266,2.113839234000352,-1.051025390625,0.31298828125,-0.048828125,50.68702290076336,-6.809160305343511,14.931297709923664,2124,-208,7,5.2503662109375,-41.23808899021254,0.009198,False,,False,,,,,32
1749.271,2.1161225539999577,-1.030029296875,0.276123046875,-0.0595703125,52.213740458015266,-6.961832061068702,13.251908396946565,2086,-166,6,5.15643310546875,-40.467639213204585,0.007884,False,,False,,,,,32
1749.271,2.1181195260001004,-1.030029296875,0.276123046875,-0.0595703125,52.213740458015266,-6.961832061068702,13.251908396946565,2086,-166,6,5.15643310546875,-40.467639213204585,0.007884,False,,False,,,,,32
1749.271,2.1201233500000853,-1.030029296875,0.276123046875,-0.0595703125,52.213740458015266,-6.961832061068702,13.251908396946565,2086,-166,6,5.15643310546875,-40.467639213204585,0.007884,False,,False,,,,,32
1749.276,2.122122969999964,-1.022216796875,0.290771484375,-0.0517578125,51.175572519083964,-6.442748091603053,12.854961832061068,2049,-160,1,5.064971923828125,-39.52286985982232,0.001314,False,,False,,,,,32
1749.276,2.124123831000361,-1.022216796875,0.290771484375,-0.0517578125,51.175572519083964,-6.442748091603053,12.854961832061068,2049,-160,1,5.064971923828125,-39.52286985982232,0.001314,False,,False,,,,,32
1749.281,2.1261262660000284,-1.036865234375,0.345947265625,-0.029296875,51.20610687022901,-3.847328244274809,14.717557251908396,2015,-157,3,4.980926513671875,-38.420782912120075,0.003942,False,,False,,,,,32
1749.281,2.128126996999981,-1.036865234375,0.345947265625,-0.029296875,51.20610687022901,-3.847328244274809,14.717557251908396,2015,-157,3,4.980926513671875,-38.420782912120075,0.003942,False,,False,,,,,32
1749.281,2.130128839000008,-1.036865234375,0.345947265625,-0.029296875,51.20610687022901,-3.847328244274809,14.717557251908396,2015,-157,3,4.980926513671875,-38.420782912120075,0.003942,False,,False,,,,,32
1749.286,2.132130700000289,-0.994873046875,0.3232421875,-0.0478515625,50.351145038167935,-4.427480916030534,13.31297709923664,1984,-124,2,4.904296875,-37.185053151069575,0.002628,False,,False,,,,,31
1749.286,2.13413195000021,-0.994873046875,0.3232421875,-0.0478515625,50.351145038167935,-4.427480916030534,13.31297709923664,1984,-124,2,4.904296875,-37.185053151069575,0.002628,False,,False,,,,,31
1749.291,2.136133811000036,-1.0146484375,0.371826171875,-0.030517578125,53.77099236641221,-3.7251908396946565,13.343511450381678,1958,-114,0,4.84002685546875,-35.83027469905678,0.0,False,,False,,,,,31
1749.291,2.1381673200003206,-1.0146484375,0.371826171875,-0.030517578125,53.77099236641221,-3.7251908396946565,13.343511450381678,1958,-114,0,4.84002685546875,-35.83027469905678,0.0,False,,False,,,,,31
1749.291,2.1401378660002592,-1.0146484375,0.371826171875,-0.030517578125,53.77099236641221,-3.7251908396946565,13.343511450381678,1958,-114,0,4.84002685546875,-35.83027469905678,0.0,False,,False,,,,,31
1749.296,2.1421389490001275,-0.9658203125,0.354736328125,-0.02490234375,56.33587786259542,-5.49618320610687,12.0,1930,-112,1,4.77081298828125,-34.375761625833796,0.001314,False,,False,,,,,31
1749.296,2.1441396620002706,-0.9658203125,0.354736328125,-0.02490234375,56.33587786259542,-5.49618320610687,12.0,1930,-112,1,4.77081298828125,-34.375761625833796,0.001314,False,,False,,,,,31
1749.301,2.146145727000203,-0.975341796875,0.366455078125,-0.015380859375,59.02290076335878,-4.763358778625954,12.091603053435113,1911,-86,1,4.723846435546875,-32.840918648511284,0.001314,False,,False,,,,,31
1749.301,2.1481422540000494,-0.975341796875,0.366455078125,-0.015380859375,59.02290076335878,-4.763358778625954,12.091603053435113,1911,-86,1,4.723846435546875,-32.840918648511284,0.001314,False,,False,,,,,31
1749.301,2.150143782000214,-0.975341796875,0.366455078125,-0.015380859375,59.02290076335878,-4.763358778625954,12.091603053435113,1911,-86,1,4.723846435546875,-32.840918648511284,0.001314,False,,False,,,,,31
1749.306,2.1521444019999763,-0.94482421875,0.367919921875,-0.022705078125,58.29007633587786,-4.091603053435114,13.282442748091603,1888,-107,0,4.6669921875,-31.239573749183425,0.0,False,,False,,,,,31
1749.306,2.154145132999929,-0.94482421875,0.367919921875,-0.022705078125,58.29007633587786,-4.091603053435114,13.282442748091603,1888,-107,0,4.6669921875,-31.239573749183425,0.0,False,,False,,,,,31
1749.3110000000001,2.1561474390000512,-0.947509765625,0.357177734375,-0.021484375,56.732824427480914,-4.427480916030534,12.549618320610687,1867,-90,5,4.615081787109375,-29.60038139336091,0.0065699999999999995,False,,False,,,,,31
1749.3110000000001,2.1581482260003213,-0.947509765625,0.357177734375,-0.021484375,56.732824427480914,-4.427480916030534,12.549618320610687,1867,-90,5,4.615081787109375,-29.60038139336091,0.0065699999999999995,False,,False,,,,,31
1749.3110000000001,2.1601496240000415,-0.947509765625,0.357177734375,-0.021484375,56.732824427480914,-4.427480916030534,12.549618320610687,1867,-90,5,4.615081787109375,-29.60038139336091,0.0065699999999999995,False,,False,,,,,31
1749.316,2.1621515589999944,-0.962158203125,0.387451171875,-0.038818359375,65.09923664122137,-4.488549618320611,9.862595419847327,1856,-37,2,4.587890625,-27.935345330362804,0.002628,False,,False,,,,,31
1749.316,2.164151401000254,-0.962158203125,0.387451171875,-0.038818359375,65.09923664122137,-4.488549618320611,9.862595419847327,1856,-37,2,4.587890625,-27.935345330362804,0.002628,False,,False,,,,,31
1749.3210000000001,2.166154225000355,-0.962158203125,0.37744140625,-0.0390625,68.27480916030534,-4.854961832061068,9.465648854961831,1854,-8,7,4.58294677734375,-26.217288682068446,0.009198,False,,False,,,,,31
1749.3210000000001,2.168154030000096,-0.962158203125,0.37744140625,-0.0390625,68.27480916030534,-4.854961832061068,9.465648854961831,1854,-8,7,4.58294677734375,-26.217288682068446,0.009198,False,,False,,,,,31
1749.3210000000001,2.1701564650002183,-0.962158203125,0.37744140625,-0.0390625,68.27480916030534,-4.854961832061068,9.465648854961831,1854,-8,7,4.58294677734375,-26.217288682068446,0.009198,False,,False,,,,,31
1749.326,2.1721577339999385,-0.965087890625,0.357666015625,-0.0361328125,68.58015267175573,-5.740458015267175,9.221374045801527,1853,5,0,4.580474853515625,-24.427808567803584,0.0,False,,False,,,,,31
1749.326,2.1741593540000395,-0.965087890625,0.357666015625,-0.0361328125,68.58015267175573,-5.740458015267175,9.221374045801527,1853,5,0,4.580474853515625,-24.427808567803584,0.0,False,,False,,,,,31
1749.3310000000001,2.1761609000000135,-0.969970703125,0.349609375,-0.038330078125,66.74809160305344,-5.740458015267175,9.007633587786259,1853,-1,2,4.580474853515625,-22.582971696560303,0.002628,False,,False,,,,,31
1749.3310000000001,2.1781620570000086,-0.969970703125,0.349609375,-0.038330078125,66.74809160305344,-5.740458015267175,9.007633587786259,1853,-1,2,4.580474853515625,-22.582971696560303,0.002628,False,,False,,,,,31
1749.3310000000001,2.1801642140003423,-0.969970703125,0.349609375,-0.038330078125,66.74809160305344,-5.740458015267175,9.007633587786259,1853,-1,2,4.580474853515625,-22.582971696560303,0.002628,False,,False,,,,,31
1749.336,2.182165796999925,-0.966796875,0.37451171875,-0.03759765625,66.56488549618321,-6.351145038167939,8.51908396946565,1854,1,-2,4.58294677734375,-20.7113547938125,-0.002628,False,,False,,,,,31
1749.336,2.184166806000121,-0.966796875,0.37451171875,-0.03759765625,66.56488549618321,-6.351145038167939,8.51908396946565,1854,1,-2,4.58294677734375,-20.7113547938125,-0.002628,False,,False,,,,,31
1749.3410000000001,2.186168908000127,-0.96533203125,0.385498046875,-0.0458984375,67.7557251908397,-6.99236641221374,8.091603053435113,1853,3,5,4.580474853515625,-18.842641237260846,0.0065699999999999995,False,,False,,,,,31
1749.3410000000001,2.1881697510002596,-0.96533203125,0.385498046875,-0.0458984375,67.7557251908397,-6.99236641221374,8.091603053435113,1853,3,5,4.580474853515625,-18.842641237260846,0.0065699999999999995,False,,False,,,,,31
1749.3410000000001,2.1901722040001914,-0.96533203125,0.385498046875,-0.0458984375,67.7557251908397,-6.99236641221374,8.091603053435113,1853,3,5,4.580474853515625,-18.842641237260846,0.0065699999999999995,False,,False,,,,,31
1749.346,2.1921729170003346,-0.969482421875,0.380615234375,-0.048583984375,69.34351145038168,-7.633587786259541,7.480916030534351,1853,-1,3,4.580474853515625,-17.00701085858354,0.003942,False,,False,,,,,31
1749.346,2.194173611000224,-0.969482421875,0.380615234375,-0.048583984375,69.34351145038168,-7.633587786259541,7.480916030534351,1853,-1,3,4.580474853515625,-17.00701085858354,0.003942,False,,False,,,,,31
1749.351,2.196175639000103,-0.97509765625,0.37646484375,-0.04541015625,69.64885496183206,-7.938931297709924,7.267175572519084,1852,-5,-1,4.5780029296875,-15.22745988799764,-0.001314,False,,False,,,,,31
1749.351,2.1981775740000558,-0.97509765625,0.37646484375,-0.04541015625,69.64885496183206,-7.938931297709924,7.267175572519084,1852,-5,-1,4.5780029296875,-15.22745988799764,-0.001314,False,,False,,,,,31
1749.351,2.200182175000009,-0.97509765625,0.37646484375,-0.04541015625,69.64885496183206,-7.938931297709924,7.267175572519084,1852,-5,-1,4.5780029296875,-15.22745988799764,-0.001314,False,,False,,,,,31
1749.356,2.2021811839999827,-0.980712890625,0.377197265625,-0.04541015625,70.16793893129771,-7.877862595419847,6.687022900763359,1853,-2,-3,4.580474853515625,-13.51884693213237,-0.003942,False,,False,,,,,31
1749.356,2.2041826380000202,-0.980712890625,0.377197265625,-0.04541015625,70.16793893129771,-7.877862595419847,6.687022900763359,1853,-2,-3,4.580474853515625,-13.51884693213237,-0.003942,False,,False,,,,,31
1749.361,2.2061842210000577,-0.974609375,0.37451171875,-0.048828125,71.02290076335878,-8.15267175572519,6.809160305343511,1853,1,-6,4.580474853515625,-11.890793180067583,-0.007884,False,,False,,,,,31
1749.361,2.2081859340000847,-0.974609375,0.37451171875,-0.048828125,71.02290076335878,-8.15267175572519,6.809160305343511,1853,1,-6,4.580474853515625,-11.890793180067583,-0.007884,False,,False,,,,,31
1749.361,2.210187016999953,-0.974609375,0.37451171875,-0.048828125,71.02290076335878,-8.15267175572519,6.809160305343511,1853,1,-6,4.580474853515625,-11.890793180067583,-0.007884,False,,False,,,,,31
1749.366,2.2121891000001597,-0.97607421875,0.369140625,-0.05029296875,71.38931297709924,-8.51908396946565,6.870229007633587,1850,-7,-1,4.57305908203125,-10.359138796481997,-0.001314,False,,False,,,,,32
1749.366,2.2141903870001443,-0.97607421875,0.369140625,-0.05029296875,71.38931297709924,-8.51908396946565,6.870229007633587,1850,-7,-1,4.57305908203125,-10.359138796481997,-0.001314,False,,False,,,,,32
1749.371,2.2161913960003403,-0.97607421875,0.36474609375,-0.051513671875,71.38931297709924,-8.67175572519084,6.809160305343511,1846,-12,-5,4.56317138671875,-8.944700886188457,-0.0065699999999999995,False,,False,,,,,32
1749.371,2.218192850000378,-0.97607421875,0.36474609375,-0.051513671875,71.38931297709924,-8.67175572519084,6.809160305343511,1846,-12,-5,4.56317138671875,-8.944700886188457,-0.0065699999999999995,False,,False,,,,,32
1749.371,2.2201945070000875,-0.97607421875,0.36474609375,-0.051513671875,71.38931297709924,-8.67175572519084,6.809160305343511,1846,-12,-5,4.56317138671875,-8.944700886188457,-0.0065699999999999995,False,,False,,,,,32
1749.376,2.2221967200002837,-0.96923828125,0.359375,-0.051025390625,69.86259541984732,-8.0,7.816793893129771,1838,-36,0,4.54339599609375,-7.664999568597252,0.0,False,,False,,,,,32
1749.376,2.2241973029999826,-0.96923828125,0.359375,-0.051025390625,69.86259541984732,-8.0,7.816793893129771,1838,-36,0,4.54339599609375,-7.664999568597252,0.0,False,,False,,,,,32
1749.381,2.226200534000327,-0.97021484375,0.353759765625,-0.052978515625,69.43511450381679,-7.969465648854961,7.786259541984733,1824,-54,-3,4.5087890625,-6.54349349909911,-0.003942,False,,False,,,,,32
1749.381,2.2282004690000576,-0.97021484375,0.353759765625,-0.052978515625,69.43511450381679,-7.969465648854961,7.786259541984733,1824,-54,-3,4.5087890625,-6.54349349909911,-0.003942,False,,False,,,,,32
1749.381,2.2302036630003386,-0.97021484375,0.353759765625,-0.052978515625,69.43511450381679,-7.969465648854961,7.786259541984733,1824,-54,-3,4.5087890625,-6.54349349909911,-0.003942,False,,False,,,,,32
1749.386,2.232204857999932,-0.97412109375,0.345947265625,-0.054443359375,70.9618320610687,-8.335877862595419,6.717557251908397,1815,-38,-3,4.486541748046875,-5.590368085659346,-0.003942,False,,False,,,,,32
1749.386,2.2342057370001385,-0.97412109375,0.345947265625,-0.054443359375,70.9618320610687,-8.335877862595419,6.717557251908397,1815,-38,-3,4.486541748046875,-5.590368085659346,-0.003942,False,,False,,,,,32
1749.391,2.236207802000081,-0.98681640625,0.3369140625,-0.05078125,73.34351145038168,-8.6412213740458,5.83206106870229,1812,-10,0,4.4791259765625,-4.774110492994369,0.0,False,,False,,,,,32
1749.391,2.2382090700002664,-0.98681640625,0.3369140625,-0.05078125,73.34351145038168,-8.6412213740458,5.83206106870229,1812,-10,0,4.4791259765625,-4.774110492994369,0.0,False,,False,,,,,32
1749.391,2.2402103200001875,-0.98681640625,0.3369140625,-0.05078125,73.34351145038168,-8.6412213740458,5.83206106870229,1812,-10,0,4.4791259765625,-4.774110492994369,0.0,False,,False,,,,,32
1749.396,2.242210921000151,-0.966064453125,0.313720703125,-0.049072265625,72.51908396946564,-9.83206106870229,5.068702290076335,1813,-1,-1,4.481597900390625,-4.046660441163094,-0.001314,False,,False,,,,,31
1749.396,2.244212171000072,-0.966064453125,0.313720703125,-0.049072265625,72.51908396946564,-9.83206106870229,5.068702290076335,1813,-1,-1,4.481597900390625,-4.046660441163094,-0.001314,False,,False,,,,,31
1749.401,2.246213958000226,-0.9755859375,0.31884765625,-0.026611328125,71.6030534351145,-10.13740458015267,4.793893129770992,1812,-3,4,4.4791259765625,-3.3826107526305065,0.005256,False,,False,,,,,31
1749.401,2.248215430000073,-0.9755859375,0.31884765625,-0.026611328125,71.6030534351145,-10.13740458015267,4.793893129770992,1812,-3,4,4.4791259765625,-3.3826107526305065,0.005256,False,,False,,,,,31
1749.401,2.2502160870003536,-0.9755859375,0.31884765625,-0.026611328125,71.6030534351145,-10.13740458015267,4.793893129770992,1812,-3,4,4.4791259765625,-3.3826107526305065,0.005256,False,,False,,,,,31
1749.406,2.2522185040002114,-0.9619140625,0.316162109375,-0.02978515625,71.54198473282443,-10.717557251908396,4.6106870229007635,1813,0,0,4.481597900390625,-2.7776775825285815,0.0,False,,False,,,,,31
1749.406,2.2542187170001853,-0.9619140625,0.316162109375,-0.02978515625,71.54198473282443,-10.717557251908396,4.6106870229007635,1813,0,0,4.481597900390625,-2.7776775825285815,0.0,False,,False,,,,,31
1749.411,2.25622109599999,-0.96240234375,0.315673828125,-0.02099609375,71.54198473282443,-11.389312977099236,4.122137404580153,1813,3,-7,4.481597900390625,-2.22920867389576,-0.009198,False,,False,,,,,31
1749.411,2.258221142000366,-0.96240234375,0.315673828125,-0.02099609375,71.54198473282443,-11.389312977099236,4.122137404580153,1813,3,-7,4.481597900390625,-2.22920867389576,-0.009198,False,,False,,,,,31
1749.411,2.260223911000139,-0.96240234375,0.315673828125,-0.02099609375,71.54198473282443,-11.389312977099236,4.122137404580153,1813,3,-7,4.481597900390625,-2.22920867389576,-0.009198,False,,False,,,,,31
1749.416,2.262226585999997,-0.9541015625,0.3046875,-0.02392578125,70.44274809160305,-12.091603053435113,3.3893129770992365,1812,0,-10,4.4791259765625,-1.7377466319152783,-0.013139999999999999,False,,False,,,,,31
1749.416,2.2642263729999286,-0.9541015625,0.3046875,-0.02392578125,70.44274809160305,-12.091603053435113,3.3893129770992365,1812,0,-10,4.4791259765625,-1.7377466319152783,-0.013139999999999999,False,,False,,,,,31
1749.421,2.26622917900022,-0.941650390625,0.29931640625,-0.027587890625,69.9236641221374,-12.977099236641221,3.3893129770992365,1813,1,4,4.481597900390625,-1.302919872829704,0.005256,False,,False,,,,,31
1749.421,2.2682290760003525,-0.941650390625,0.29931640625,-0.027587890625,69.9236641221374,-12.977099236641221,3.3893129770992365,1813,1,4,4.481597900390625,-1.302919872829704,0.005256,False,,False,,,,,31
1749.421,2.27023138200002,-0.941650390625,0.29931640625,-0.027587890625,69.9236641221374,-12.977099236641221,3.3893129770992365,1813,1,4,4.481597900390625,-1.302919872829704,0.005256,False,,False,,,,,31
1749.426,2.2722319839999727,-0.93505859375,0.30322265625,-0.032470703125,69.55725190839695,-13.282442748091603,3.480916030534351,1813,0,5,4.481597900390625,-0.9182253412058905,0.0065699999999999995,False,,False,,,,,31
1749.426,2.2744672490002813,-0.93505859375,0.30322265625,-0.032470703125,69.55725190839695,-13.282442748091603,3.480916030534351,1813,0,5,4.481597900390625,-0.9182253412058905,0.0065699999999999995,False,,False,,,,,31
1749.431,2.276464591000149,-0.931884765625,0.30419921875,-0.03369140625,69.70992366412213,-13.587786259541984,3.5114503816793894,1812,-4,-4,4.4791259765625,-0.5828640590127665,-0.005256,False,,False,,,,,31
1749.431,2.2784656560002077,-0.931884765625,0.30419921875,-0.03369140625,69.70992366412213,-13.587786259541984,3.5114503816793894,1812,-4,-4,4.4791259765625,-0.5828640590127665,-0.005256,False,,False,,,,,31
1749.431,2.280471368000235,-0.931884765625,0.30419921875,-0.03369140625,69.70992366412213,-13.587786259541984,3.5114503816793894,1812,-4,-4,4.4791259765625,-0.5828640590127665,-0.005256,False,,False,,,,,31
1749.4360000000001,2.2824695260001135,-0.919921875,0.28955078125,-0.03662109375,69.70992366412213,-14.259541984732824,3.633587786259542,1813,-5,-4,4.481597900390625,-0.2954524592329061,-0.005256,False,,False,,,,,31
1749.4360000000001,2.2844696460001614,-0.919921875,0.28955078125,-0.03662109375,69.70992366412213,-14.259541984732824,3.633587786259542,1813,-5,-4,4.481597900390625,-0.2954524592329061,-0.005256,False,,False,,,,,31
1749.441,2.2864707290000297,-0.926025390625,0.286865234375,-0.039794921875,69.6793893129771,-13.923664122137405,3.6030534351145036,1812,-3,0,4.4791259765625,-0.05055660269857275,0.0,False,,False,,,,,31
1749.441,2.288471589999972,-0.926025390625,0.286865234375,-0.039794921875,69.6793893129771,-13.923664122137405,3.6030534351145036,1812,-3,0,4.4791259765625,-0.05055660269857275,0.0,False,,False,,,,,31
1749.441,2.290473581000242,-0.926025390625,0.286865234375,-0.039794921875,69.6793893129771,-13.923664122137405,3.6030534351145036,1812,-3,0,4.4791259765625,-0.05055660269857275,0.0,False,,False,,,,,31
1749.4460000000001,2.292474627000047,-0.92529296875,0.281494140625,-0.043212890625,69.0381679389313,-13.587786259541984,3.9083969465648853,1813,1,0,4.481597900390625,0.15519811451423965,0.0,False,,False,,,,,31
1749.4460000000001,2.2944753390002006,-0.92529296875,0.281494140625,-0.043212890625,69.0381679389313,-13.587786259541984,3.9083969465648853,1813,1,0,4.481597900390625,0.15519811451423965,0.0,False,,False,,,,,31
1749.451,2.296477774000323,-0.925048828125,0.27783203125,-0.038818359375,68.54961832061069,-13.862595419847327,4.244274809160305,1813,1,4,4.481597900390625,0.32699438002103176,0.005256,False,,False,,,,,31
1749.451,2.298478802000318,-0.925048828125,0.27783203125,-0.038818359375,68.54961832061069,-13.862595419847327,4.244274809160305,1813,1,4,4.481597900390625,0.32699438002103176,0.005256,False,,False,,,,,31
1749.451,2.3004807740003343,-0.925048828125,0.27783203125,-0.038818359375,68.54961832061069,-13.862595419847327,4.244274809160305,1813,1,4,4.481597900390625,0.32699438002103176,0.005256,False,,False,,,,,31
1749.4560000000001,2.302481283000361,-0.926513671875,0.266845703125,-0.043701171875,68.30534351145037,-13.923664122137405,4.977099236641221,1812,-1,0,4.4791259765625,0.4660819832511952,0.0,False,,False,,,,,31
1749.4560000000001,2.3044832919999862,-0.926513671875,0.266845703125,-0.043701171875,68.30534351145037,-13.923664122137405,4.977099236641221,1812,-1,0,4.4791259765625,0.4660819832511952,0.0,False,,False,,,,,31
1749.461,2.3064848010003516,-0.927978515625,0.259033203125,-0.04443359375,68.21374045801527,-13.587786259541984,5.2824427480916025,1813,4,-3,4.481597900390625,0.5739810664131315,-0.003942,False,,False,,,,,31
1749.461,2.3084860700000718,-0.927978515625,0.259033203125,-0.04443359375,68.21374045801527,-13.587786259541984,5.2824427480916025,1813,4,-3,4.481597900390625,0.5739810664131315,-0.003942,False,,False,,,,,31
1749.461,2.3104880050000247,-0.927978515625,0.259033203125,-0.04443359375,68.21374045801527,-13.587786259541984,5.2824427480916025,1813,4,-3,4.481597900390625,0.5739810664131315,-0.003942,False,,False,,,,,31
1749.4660000000001,2.3124896990002526,-0.93115234375,0.251220703125,-0.0458984375,67.3587786259542,-13.190839694656487,5.587786259541985,1812,1,-3,4.4791259765625,0.6559970925512252,-0.003942,False,,False,,,,,31
1749.4660000000001,2.314489727000364,-0.93115234375,0.251220703125,-0.0458984375,67.3587786259542,-13.190839694656487,5.587786259541985,1812,1,-3,4.4791259765625,0.6559970925512252,-0.003942,False,,False,,,,,31
1749.471,2.31649208700037,-0.934326171875,0.250732421875,-0.045166015625,66.56488549618321,-13.007633587786259,5.6183206106870225,1813,5,-2,4.481597900390625,0.7151561545673756,-0.002628,False,,False,,,,,31
1749.471,2.318492948000312,-0.934326171875,0.250732421875,-0.045166015625,66.56488549618321,-13.007633587786259,5.6183206106870225,1813,5,-2,4.481597900390625,0.7151561545673756,-0.002628,False,,False,,,,,31
1749.471,2.3204955310002333,-0.934326171875,0.250732421875,-0.045166015625,66.56488549618321,-13.007633587786259,5.6183206106870225,1813,5,-2,4.481597900390625,0.7151561545673756,-0.002628,False,,False,,,,,31
1749.476,2.3224959849999323,-0.936767578125,0.253662109375,-0.053955078125,65.80152671755725,-12.427480916030534,6.3206106870229,1813,1,-3,4.481597900390625,0.7561132686587275,-0.003942,False,,False,,,,,31
1749.476,2.3244966239999485,-0.936767578125,0.253662109375,-0.053955078125,65.80152671755725,-12.427480916030534,6.3206106870229,1813,1,-3,4.481597900390625,0.7561132686587275,-0.003942,False,,False,,,,,31
1749.481,2.326499003000208,-0.93408203125,0.25048828125,-0.057861328125,65.25190839694656,-12.274809160305344,6.65648854961832,1812,-7,-4,4.4791259765625,0.7794482072712324,-0.005256,False,,False,,,,,31
1749.481,2.3284995680000975,-0.93408203125,0.25048828125,-0.057861328125,65.25190839694656,-12.274809160305344,6.65648854961832,1812,-7,-4,4.4791259765625,0.7794482072712324,-0.005256,False,,False,,,,,31
1749.481,2.33050176200004,-0.93408203125,0.25048828125,-0.057861328125,65.25190839694656,-12.274809160305344,6.65648854961832,1812,-7,-4,4.4791259765625,0.7794482072712324,-0.005256,False,,False,,,,,31
1749.486,2.3325035120001303,-0.93603515625,0.246337890625,-0.06201171875,64.58015267175573,-11.877862595419847,6.900763358778626,1813,-1,-1,4.481597900390625,0.7859016328872832,-0.001314,False,,False,,,,,31
1749.486,2.3345051690002947,-0.93603515625,0.246337890625,-0.06201171875,64.58015267175573,-11.877862595419847,6.900763358778626,1813,-1,-1,4.481597900390625,0.7859016328872832,-0.001314,False,,False,,,,,31
1749.491,2.3365068820003216,-0.93408203125,0.246337890625,-0.067626953125,63.96946564885496,-11.633587786259541,7.480916030534351,1812,-6,4,4.4791259765625,0.7799191807351032,0.005256,False,,False,,,,,31
1749.491,2.3385085210002217,-0.93408203125,0.246337890625,-0.067626953125,63.96946564885496,-11.633587786259541,7.480916030534351,1812,-6,4,4.4791259765625,0.7799191807351032,0.005256,False,,False,,,,,31
1749.491,2.340509678000217,-0.93408203125,0.246337890625,-0.067626953125,63.96946564885496,-11.633587786259541,7.480916030534351,1812,-6,4,4.4791259765625,0.7799191807351032,0.005256,False,,False,,,,,31
1749.496,2.3425113910002437,-0.92919921875,0.2490234375,-0.0703125,63.51145038167939,-10.99236641221374,8.274809160305344,1812,0,-5,4.4791259765625,0.7618218018767046,-0.0065699999999999995,False,,False,,,,,31
1749.496,2.34451191800008,-0.92919921875,0.2490234375,-0.0703125,63.51145038167939,-10.99236641221374,8.274809160305344,1812,0,-5,4.4791259765625,0.7618218018767046,-0.0065699999999999995,False,,False,,,,,31
1749.501,2.34651416800034,-0.93359375,0.251220703125,-0.0732421875,63.38931297709924,-10.65648854961832,8.366412213740457,1814,7,0,4.48406982421875,0.7374252087774873,0.0,False,,False,,,,,31
1749.501,2.348515251000208,-0.93359375,0.251220703125,-0.0732421875,63.38931297709924,-10.65648854961832,8.366412213740457,1814,7,0,4.48406982421875,0.7374252087774873,0.0,False,,False,,,,,31
1749.501,2.3505171490000976,-0.93359375,0.251220703125,-0.0732421875,63.38931297709924,-10.65648854961832,8.366412213740457,1814,7,0,4.48406982421875,0.7374252087774873,0.0,False,,False,,,,,31
1749.506,2.352518066000357,-0.92724609375,0.250244140625,-0.07666015625,63.08396946564885,-10.381679389312977,8.82442748091603,1812,5,-2,4.4791259765625,0.7098989600266764,-0.002628,False,,False,,,,,31
1749.506,2.3545975179999914,-0.92724609375,0.250244140625,-0.07666015625,63.08396946564885,-10.381679389312977,8.82442748091603,1812,5,-2,4.4791259765625,0.7098989600266764,-0.002628,False,,False,,,,,31
1749.511,2.356595268000092,-0.92822265625,0.252685546875,-0.07666015625,62.93129770992366,-10.045801526717558,9.251908396946565,1813,1,-1,4.481597900390625,0.6747798737139626,-0.001314,False,,False,,,,,31
1749.511,2.3585975180003516,-0.92822265625,0.252685546875,-0.07666015625,62.93129770992366,-10.045801526717558,9.251908396946565,1813,1,-1,4.481597900390625,0.6747798737139626,-0.001314,False,,False,,,,,31
1749.511,2.360603323000305,-0.92822265625,0.252685546875,-0.07666015625,62.93129770992366,-10.045801526717558,9.251908396946565,1813,1,-1,4.481597900390625,0.6747798737139626,-0.001314,False,,False,,,,,31
1749.516,2.362601277000067,-0.92333984375,0.253662109375,-0.07958984375,62.167938931297705,-9.31297709923664,10.320610687022901,1813,-1,-5,4.481597900390625,0.6356034678631419,-0.0065699999999999995,False,,False,,,,,31
1749.516,2.3646018600002208,-0.92333984375,0.253662109375,-0.07958984375,62.167938931297705,-9.31297709923664,10.320610687022901,1813,-1,-5,4.481597900390625,0.6356034678631419,-0.0065699999999999995,False,,False,,,,,31
1749.521,2.366603257999941,-0.9208984375,0.2529296875,-0.0810546875,62.229007633587784,-9.34351145038168,10.65648854961832,1814,6,-6,4.48406982421875,0.5971788947350752,-0.007884,False,,False,,,,,31
1749.521,2.36860493300037,-0.9208984375,0.2529296875,-0.0810546875,62.229007633587784,-9.34351145038168,10.65648854961832,1814,6,-6,4.48406982421875,0.5971788947350752,-0.007884,False,,False,,,,,31
1749.521,2.3706060170002274,-0.9208984375,0.2529296875,-0.0810546875,62.229007633587784,-9.34351145038168,10.65648854961832,1814,6,-6,4.48406982421875,0.5971788947350752,-0.007884,False,,False,,,,,31
1749.526,2.372609470000043,-0.919189453125,0.249267578125,-0.081298828125,62.3206106870229,-9.068702290076336,11.083969465648854,1814,5,5,4.48406982421875,0.5599403884321799,0.0065699999999999995,False,,False,,,,,31
1749.526,2.3746084980002706,-0.919189453125,0.249267578125,-0.081298828125,62.3206106870229,-9.068702290076336,11.083969465648854,1814,5,5,4.48406982421875,0.5599403884321799,0.0065699999999999995,False,,False,,,,,31
1749.531,2.3766097110001283,-0.91748046875,0.246337890625,-0.078857421875,62.10687022900763,-8.977099236641221,11.450381679389313,1814,0,1,4.48406982421875,0.5224437953851957,0.001314,False,,False,,,,,31
1749.531,2.3786107939999965,-0.91748046875,0.246337890625,-0.078857421875,62.10687022900763,-8.977099236641221,11.450381679389313,1814,0,1,4.48406982421875,0.5224437953851957,0.001314,False,,False,,,,,31
1749.531,2.3806128579999495,-0.91748046875,0.246337890625,-0.078857421875,62.10687022900763,-8.977099236641221,11.450381679389313,1814,0,1,4.48406982421875,0.5224437953851957,0.001314,False,,False,,,,,31
1749.536,2.382616386000336,-0.91064453125,0.245361328125,-0.081298828125,61.12977099236641,-8.763358778625953,12.15267175572519,1815,7,-4,4.486541748046875,0.4852743397231908,-0.005256,False,,False,,,,,31
1749.536,2.38461624699994,-0.91064453125,0.245361328125,-0.081298828125,61.12977099236641,-8.763358778625953,12.15267175572519,1815,7,-4,4.486541748046875,0.4852743397231908,-0.005256,False,,False,,,,,31
1749.541,2.3866181080002207,-0.91015625,0.249267578125,-0.078125,61.19083969465649,-8.732824427480915,12.213740458015266,1815,0,0,4.486541748046875,0.45070772536618187,0.0,False,,False,,,,,31
1749.541,2.3886192090003533,-0.91015625,0.249267578125,-0.078125,61.19083969465649,-8.732824427480915,12.213740458015266,1815,0,0,4.486541748046875,0.45070772536618187,0.0,False,,False,,,,,31
1749.541,2.390620496000338,-0.91015625,0.249267578125,-0.078125,61.19083969465649,-8.732824427480915,12.213740458015266,1815,0,0,4.486541748046875,0.45070772536618187,0.0,False,,False,,,,,31
1749.546,2.392635301000155,-0.908935546875,0.24853515625,-0.077880859375,61.31297709923664,-8.854961832061068,12.519083969465647,1817,11,-1,4.491485595703125,0.42061142323073597,-0.001314,False,,False,,,,,31
1749.546,2.3946230510000532,-0.908935546875,0.24853515625,-0.077880859375,61.31297709923664,-8.854961832061068,12.519083969465647,1817,11,-1,4.491485595703125,0.42061142323073597,-0.001314,False,,False,,,,,31
1749.551,2.3966295600002923,-0.90673828125,0.248779296875,-0.08154296875,61.160305343511446,-8.946564885496183,12.916030534351144,1816,7,0,4.489013671875,0.3946935813469334,0.0,False,,False,,,,,31
1749.551,2.3986259030002657,-0.90673828125,0.248779296875,-0.08154296875,61.160305343511446,-8.946564885496183,12.916030534351144,1816,7,0,4.489013671875,0.3946935813469334,0.0,False,,False,,,,,31
1749.551,2.4006270970003243,-0.90673828125,0.248779296875,-0.08154296875,61.160305343511446,-8.946564885496183,12.916030534351144,1816,7,0,4.489013671875,0.3946935813469334,0.0,False,,False,,,,,31
1749.556,2.4026305510001293,-0.90673828125,0.250244140625,-0.0830078125,60.33587786259542,-8.854961832061068,13.282442748091603,1817,-4,-6,4.491485595703125,0.36906832605788276,-0.007884,False,,False,,,,,31
1749.556,2.4046305780002513,-0.90673828125,0.250244140625,-0.0830078125,60.33587786259542,-8.854961832061068,13.282442748091603,1817,-4,-6,4.491485595703125,0.36906832605788276,-0.007884,False,,False,,,,,31
1749.5610000000001,2.4066324210002676,-0.9130859375,0.25390625,-0.084716796875,60.396946564885496,-8.763358778625953,13.343511450381678,1818,0,0,4.49395751953125,0.34584974911791344,0.0,False,,False,,,,,31
1749.5610000000001,2.4086329300002944,-0.9130859375,0.25390625,-0.084716796875,60.396946564885496,-8.763358778625953,13.343511450381678,1818,0,0,4.49395751953125,0.34584974911791344,0.0,False,,False,,,,,31
1749.5610000000001,2.4106347720003214,-0.9130859375,0.25390625,-0.084716796875,60.396946564885496,-8.763358778625953,13.343511450381678,1818,0,0,4.49395751953125,0.34584974911791344,0.0,False,,False,,,,,31
1749.566,2.4126376150002216,-0.91552734375,0.251708984375,-0.083251953125,60.42748091603053,-8.82442748091603,13.587786259541984,1819,0,1,4.496429443359375,0.3285633686298333,0.001314,False,,False,,,,,31
1749.566,2.4146370500002377,-0.91552734375,0.251708984375,-0.083251953125,60.42748091603053,-8.82442748091603,13.587786259541984,1819,0,1,4.496429443359375,0.3285633686298333,0.001314,False,,False,,,,,31
1749.5710000000001,2.4166391329999897,-0.918701171875,0.24951171875,-0.083984375,60.58015267175572,-8.793893129770993,13.557251908396946,1820,-1,2,4.4989013671875,0.3164937372216972,0.002628,False,,False,,,,,31
1749.5710000000001,2.4186396970003443,-0.918701171875,0.24951171875,-0.083984375,60.58015267175572,-8.793893129770993,13.557251908396946,1820,-1,2,4.4989013671875,0.3164937372216972,0.002628,False,,False,,,,,31
1749.5710000000001,2.4206410400001914,-0.918701171875,0.24951171875,-0.083984375,60.58015267175572,-8.793893129770993,13.557251908396946,1820,-1,2,4.4989013671875,0.3164937372216972,0.002628,False,,False,,,,,31
1749.576,2.422644585999933,-0.958984375,0.26416015625,-0.073486328125,60.61068702290076,-8.458015267175572,13.98473282442748,1821,-3,1,4.501373291015625,0.30896632186634837,0.001314,False,,False,,,,,31
1749.576,2.4246444280001924,-0.958984375,0.26416015625,-0.073486328125,60.61068702290076,-8.458015267175572,13.98473282442748,1821,-3,1,4.501373291015625,0.30896632186634837,0.001314,False,,False,,,,,31
1749.5810000000001,2.4266451410003356,-0.919189453125,0.224365234375,-0.1064453125,60.51908396946565,-10.076335877862595,12.610687022900763,1822,4,1,4.50384521484375,0.30535061405062414,0.001314,False,,False,,,,,31
1749.5810000000001,2.428646817000299,-0.919189453125,0.224365234375,-0.1064453125,60.51908396946565,-10.076335877862595,12.610687022900763,1822,4,1,4.50384521484375,0.30535061405062414,0.001314,False,,False,,,,,31
