state_time,loop_time,accel_x,accel_y,accel_z,gyro_x,gyro_y,gyro_z,motor_angle,motor_velocity,motor_current,hip_angle,hip_velocity,hip_torque_from_current,did_heel_strike,gait_phase,did_toe_off,commanded_current,commanded_position,commanded_torque,commanded_voltage,temperature
189.07,1.603992825999967,-0.94287109375,0.311767578125,-0.00341796875,-3.969465648854962,1.984732824427481,-0.7022900763358778,38225,2,1,-3.406660341222274,-0.06461852190883662,0.001314,False,,False,,,,,30
189.07,1.6060842829999729,-0.94287109375,0.311767578125,-0.00341796875,-3.969465648854962,1.984732824427481,-0.7022900763358778,38225,2,1,-3.406660341222274,-0.06461852190883662,0.001314,False,,False,,,,,30
189.07500000000002,1.6080842789999679,-0.946044921875,0.311767578125,-0.005615234375,-3.969465648854962,1.8625954198473282,-0.6106870229007634,38225,-3,2,-3.406660341222274,70.83006782498725,0.002628,False,,False,,,,,30
189.07500000000002,1.6100877559999844,-0.946044921875,0.311767578125,-0.005615234375,-3.969465648854962,1.8625954198473282,-0.6106870229007634,38225,-3,2,-3.406660341222274,70.83006782498725,0.002628,False,,False,,,,,30
189.07500000000002,1.6120858629999475,-0.946044921875,0.311767578125,-0.005615234375,-3.969465648854962,1.8625954198473282,-0.6106870229007634,38225,-3,2,-3.406660341222274,70.83006782498725,0.002628,False,,False,,,,,30
189.08,1.614090099000009,-0.946533203125,0.31689453125,-0.0048828125,-3.969465648854962,2.1374045801526718,-0.6412213740458015,38226,-2,-4,-3.404188417394149,341.88292803276477,-0.005256,False,,False,,,,,30
189.08,1.6161607420000337,-0.946533203125,0.31689453125,-0.0048828125,-3.969465648854962,2.1374045801526718,-0.6412213740458015,38226,-2,-4,-3.404188417394149,341.88292803276477,-0.005256,False,,False,,,,,30
189.085,1.6181611079999811,-0.9482421875,0.31396484375,-0.00732421875,-4.0,1.9541984732824427,-0.6717557251908397,38225,3,-12,-3.406660341222274,847.4907934516992,-0.015768,False,,False,,,,,30
189.085,1.6201632329999711,-0.9482421875,0.31396484375,-0.00732421875,-4.0,1.9541984732824427,-0.6717557251908397,38225,3,-12,-3.406660341222274,847.4907934516992,-0.015768,False,,False,,,,,30
189.085,1.6221692100000382,-0.9482421875,0.31396484375,-0.00732421875,-4.0,1.9541984732824427,-0.6717557251908397,38225,3,-12,-3.406660341222274,847.4907934516992,-0.015768,False,,False,,,,,30
189.09,1.6241700580000042,-0.949951171875,0.311767578125,-0.00439453125,-3.9083969465648853,2.0763358778625953,-0.5801526717557252,38225,1,6,-3.406660341222274,1542.135621795783,0.007884,False,,False,,,,,30
189.09,1.6261686829999462,-0.949951171875,0.311767578125,-0.00439453125,-3.9083969465648853,2.0763358778625953,-0.5801526717557252,38225,1,6,-3.406660341222274,1542.135621795783,0.007884,False,,False,,,,,30
189.095,1.6281736229999524,-0.947998046875,0.31396484375,-0.005615234375,-4.0,2.229007633587786,-0.48854961832061067,38225,2,2,-3.406660341222274,2384.975597572949,0.002628,False,,False,,,,,30
189.095,1.6302606360000027,-0.947998046875,0.31396484375,-0.005615234375,-4.0,2.229007633587786,-0.48854961832061067,38225,2,2,-3.406660341222274,2384.975597572949,0.002628,False,,False,,,,,30
189.095,1.6322603539999818,-0.947998046875,0.31396484375,-0.005615234375,-4.0,2.229007633587786,-0.48854961832061067,38225,2,2,-3.406660341222274,2384.975597572949,0.002628,False,,False,,,,,30
189.1,1.6342624599999453,-0.944580078125,0.315673828125,-0.005615234375,-3.7557251908396947,1.984732824427481,-0.24427480916030533,38224,3,0,-3.409132265050399,3339.671839745012,0.0,False,,False,,,,,30
189.1,1.6362624189999906,-0.944580078125,0.315673828125,-0.005615234375,-3.7557251908396947,1.984732824427481,-0.24427480916030533,38224,3,0,-3.409132265050399,3339.671839745012,0.0,False,,False,,,,,30
189.105,1.6382653770000388,-0.9443359375,0.311767578125,-0.0068359375,-3.969465648854962,1.9541984732824427,-0.42748091603053434,38224,-1,-2,-3.409132265050399,4374.1798822861365,-0.002628,False,,False,,,,,30
189.105,1.6402669100000367,-0.9443359375,0.311767578125,-0.0068359375,-3.969465648854962,1.9541984732824427,-0.42748091603053434,38224,-1,-2,-3.409132265050399,4374.1798822861365,-0.002628,False,,False,,,,,30
189.105,1.64226492399996,-0.9443359375,0.311767578125,-0.0068359375,-3.969465648854962,1.9541984732824427,-0.42748091603053434,38224,-1,-2,-3.409132265050399,4374.1798822861365,-0.002628,False,,False,,,,,30
189.11,1.64426967899999,-0.94287109375,0.31298828125,-0.00537109375,-3.8167938931297707,1.984732824427481,-0.3053435114503817,38225,-4,-5,-3.406660341222274,5460.521846039014,-0.0065699999999999995,False,,False,,,,,30
189.11,1.647105869000029,-0.94287109375,0.31298828125,-0.00537109375,-3.8167938931297707,1.984732824427481,-0.3053435114503817,38225,-4,-5,-3.406660341222274,5460.521846039014,-0.0065699999999999995,False,,False,,,,,30
189.115,1.6491119380000328,-0.94677734375,0.310791015625,-0.00390625,-3.633587786259542,2.0763358778625953,-0.0916030534351145,38225,-2,-1,-3.406660341222274,6574.524260114892,-0.001314,False,,False,,,,,30
189.115,1.6511110449999933,-0.94677734375,0.310791015625,-0.00390625,-3.633587786259542,2.0763358778625953,-0.0916030534351145,38225,-2,-1,-3.406660341222274,6574.524260114892,-0.001314,False,,False,,,,,30
189.115,1.6531128179999541,-0.94677734375,0.310791015625,-0.00390625,-3.633587786259542,2.0763358778625953,-0.0916030534351145,38225,-2,-1,-3.406660341222274,6574.524260114892,-0.001314,False,,False,,,,,30
189.12,1.6551165549999496,-0.9423828125,0.313232421875,-0.000732421875,-3.6946564885496183,2.015267175572519,0.0916030534351145,38225,-1,-3,-3.406660341222274,7695.543457360323,-0.003942,False,,False,,,,,30
189.12,1.6571144209999602,-0.9423828125,0.313232421875,-0.000732421875,-3.6946564885496183,2.015267175572519,0.0916030534351145,38225,-1,-3,-3.406660341222274,7695.543457360323,-0.003942,False,,False,,,,,30
189.125,1.6591188049999346,-0.946044921875,0.315673828125,0.0029296875,-3.541984732824427,1.9541984732824427,0.030534351145038167,38225,0,-8,-3.406660341222274,8806.195288204206,-0.010512,False,,False,,,,,30
189.125,1.6611165780000192,-0.946044921875,0.315673828125,0.0029296875,-3.541984732824427,1.9541984732824427,0.030534351145038167,38225,0,-8,-3.406660341222274,8806.195288204206,-0.010512,False,,False,,,,,30
189.13,1.663121943999954,-0.941162109375,0.3134765625,-0.002197265625,-3.541984732824427,1.8015267175572518,0.21374045801526717,38225,-2,0,-3.406660341222274,9892.07804130371,0.0,False,,False,,,,,30
189.13,1.665384955000036,-0.941162109375,0.3134765625,-0.002197265625,-3.541984732824427,1.8015267175572518,0.21374045801526717,38225,-2,0,-3.406660341222274,9892.07804130371,0.0,False,,False,,,,,30
189.13,1.6675895969999601,-0.941162109375,0.3134765625,-0.002197265625,-3.541984732824427,1.8015267175572518,0.21374045801526717,38225,-2,0,-3.406660341222274,9892.07804130371,0.0,False,,False,,,,,30
189.135,1.6695923150000453,-0.943359375,0.31103515625,-0.002197265625,-3.3587786259541983,1.8931297709923662,0.3053435114503817,38224,-6,-1,-3.409132265050399,10941.491900515795,-0.001314,False,,False,,,,,30
189.135,1.6715881249999711,-0.943359375,0.31103515625,-0.002197265625,-3.3587786259541983,1.8931297709923662,0.3053435114503817,38224,-6,-1,-3.409132265050399,10941.491900515795,-0.001314,False,,False,,,,,30
189.14000000000001,1.6735922130000063,-0.942626953125,0.30908203125,0.001708984375,-3.2061068702290076,1.8015267175572518,0.366412213740458,38226,0,-9,-3.404188417394149,11945.173890325821,-0.011826,False,,False,,,,,30
189.14000000000001,1.6755947829999513,-0.942626953125,0.30908203125,0.001708984375,-3.2061068702290076,1.8015267175572518,0.366412213740458,38226,0,-9,-3.404188417394149,11945.173890325821,-0.011826,False,,False,,,,,30
189.14000000000001,1.6775920930000439,-0.942626953125,0.30908203125,0.001708984375,-3.2061068702290076,1.8015267175572518,0.366412213740458,38226,0,-9,-3.404188417394149,11945.173890325821,-0.011826,False,,False,,,,,30
189.145,1.6795971069999496,-0.940673828125,0.31787109375,0.0048828125,-3.114503816793893,1.618320610687023,0.48854961832061067,38226,0,2,-3.404188417394149,12896.035303669456,0.002628,False,,False,,,,,30
189.145,1.6815975099999605,-0.940673828125,0.31787109375,0.0048828125,-3.114503816793893,1.618320610687023,0.48854961832061067,38226,0,2,-3.404188417394149,12896.035303669456,0.002628,False,,False,,,,,30
189.15,1.6835989879999715,-0.9404296875,0.3154296875,0.00244140625,-3.0534351145038165,1.7404580152671756,0.48854961832061067,38226,-1,9,-3.404188417394149,13788.899640267036,0.011826,False,,False,,,,,30
189.15,1.6856004830000302,-0.9404296875,0.3154296875,0.00244140625,-3.0534351145038165,1.7404580152671756,0.48854961832061067,38226,-1,9,-3.404188417394149,13788.899640267036,0.011826,False,,False,,,,,30
189.15,1.6876026639999964,-0.9404296875,0.3154296875,0.00244140625,-3.0534351145038165,1.7404580152671756,0.48854961832061067,38226,-1,9,-3.404188417394149,13788.899640267036,0.011826,False,,False,,,,,30
189.155,1.6896027709999544,-0.93994140625,0.317138671875,0.003173828125,-2.931297709923664,1.5267175572519083,0.42748091603053434,38226,5,8,-3.404188417394149,14620.271626325622,0.010512,False,,False,,,,,30
189.155,1.6916052660000105,-0.93994140625,0.317138671875,0.003173828125,-2.931297709923664,1.5267175572519083,0.42748091603053434,38226,5,8,-3.404188417394149,14620.271626325622,0.010512,False,,False,,,,,30
189.16,1.6936073729999634,-0.940673828125,0.316162109375,0.001220703125,-2.4122137404580153,1.4961832061068703,0.5190839694656488,38225,-1,1,-3.406660341222274,15388.11769610044,0.001314,False,,False,,,,,29
189.16,1.6956049240000084,-0.940673828125,0.316162109375,0.001220703125,-2.4122137404580153,1.4961832061068703,0.5190839694656488,38225,-1,1,-3.406660341222274,15388.11769610044,0.001314,False,,False,,,,,29
189.16,1.6976826410000285,-0.940673828125,0.316162109375,0.001220703125,-2.4122137404580153,1.4961832061068703,0.5190839694656488,38225,-1,1,-3.406660341222274,15388.11769610044,0.001314,False,,False,,,,,29
189.165,1.6999067079999577,-0.945556640625,0.318603515625,0.005859375,-2.381679389312977,1.4961832061068703,0.6717557251908397,38226,-2,-5,-3.404188417394149,16091.657458714408,-0.0065699999999999995,False,,False,,,,,29
189.165,1.7018995370000312,-0.945556640625,0.318603515625,0.005859375,-2.381679389312977,1.4961832061068703,0.6717557251908397,38226,-2,-5,-3.404188417394149,16091.657458714408,-0.0065699999999999995,False,,False,,,,,29
189.17000000000002,1.703905199000019,-0.944580078125,0.3154296875,0.00244140625,-2.1068702290076335,1.3129770992366412,0.5801526717557252,38227,5,-5,-3.401716493566024,16731.17454461227,-0.0065699999999999995,False,,False,,,,,29
189.17000000000002,1.7059016759999395,-0.944580078125,0.3154296875,0.00244140625,-2.1068702290076335,1.3129770992366412,0.5801526717557252,38227,5,-5,-3.401716493566024,16731.17454461227,-0.0065699999999999995,False,,False,,,,,29
189.175,1.707903041999998,-0.94677734375,0.314208984375,0.004150390625,-2.1374045801526718,1.3129770992366412,0.48854961832061067,38225,-2,-5,-3.406660341222274,17307.82672096063,-0.0065699999999999995,False,,False,,,,,29
189.175,1.7099036490000117,-0.94677734375,0.314208984375,0.004150390625,-2.1374045801526718,1.3129770992366412,0.48854961832061067,38225,-2,-5,-3.406660341222274,17307.82672096063,-0.0065699999999999995,False,,False,,,,,29
189.175,1.7119052560000227,-0.94677734375,0.314208984375,0.004150390625,-2.1374045801526718,1.3129770992366412,0.48854961832061067,38225,-2,-5,-3.406660341222274,17307.82672096063,-0.0065699999999999995,False,,False,,,,,29
189.18,1.7139103619999787,-0.946533203125,0.317626953125,0.001220703125,-1.7404580152671756,1.2519083969465647,0.7022900763358778,38227,3,1,-3.401716493566024,17823.492165407857,0.001314,False,,False,,,,,30
189.18,1.715910264999934,-0.946533203125,0.317626953125,0.001220703125,-1.7404580152671756,1.2519083969465647,0.7022900763358778,38227,3,1,-3.401716493566024,17823.492165407857,0.001314,False,,False,,,,,30
189.185,1.7179085760000135,-0.950439453125,0.318115234375,0.00048828125,-1.648854961832061,1.465648854961832,0.7938931297709924,38227,5,-2,-3.401716493566024,18280.635704418117,-0.002628,False,,False,,,,,30
189.185,1.7199102380000113,-0.950439453125,0.318115234375,0.00048828125,-1.648854961832061,1.465648854961832,0.7938931297709924,38227,5,-2,-3.401716493566024,18280.635704418117,-0.002628,False,,False,,,,,30
189.185,1.7219146410000121,-0.950439453125,0.318115234375,0.00048828125,-1.648854961832061,1.465648854961832,0.7938931297709924,38227,5,-2,-3.401716493566024,18280.635704418117,-0.002628,False,,False,,,,,30
189.19,1.7239159890000337,-0.9453125,0.316162109375,0.00390625,-1.5877862595419847,1.3435114503816794,0.7633587786259541,38227,-1,-2,-3.401716493566024,18682.1632647804,-0.002628,False,,False,,,,,30
189.19,1.725918409999963,-0.9453125,0.316162109375,0.00390625,-1.5877862595419847,1.3435114503816794,0.7633587786259541,38227,-1,-2,-3.401716493566024,18682.1632647804,-0.002628,False,,False,,,,,30
189.195,1.727920016999974,-0.941162109375,0.313232421875,0.003662109375,-1.5267175572519083,1.4351145038167938,0.6106870229007634,38227,0,-3,-3.401716493566024,19031.30974752122,-0.003942,False,,False,,,,,30
189.195,1.7300957139999582,-0.941162109375,0.313232421875,0.003662109375,-1.5267175572519083,1.4351145038167938,0.6106870229007634,38227,0,-3,-3.401716493566024,19031.30974752122,-0.003942,False,,False,,,,,30
189.195,1.7324852790000023,-0.941162109375,0.313232421875,0.003662109375,-1.5267175572519083,1.4351145038167938,0.6106870229007634,38227,0,-3,-3.401716493566024,19031.30974752122,-0.003942,False,,False,,,,,30
189.20000000000002,1.7346688840000297,-0.941162109375,0.309814453125,0.0029296875,-1.3129770992366412,1.4045801526717556,0.7938931297709924,38227,1,0,-3.401716493566024,19331.545763753747,0.0,False,,False,,,,,30
189.20000000000002,1.736667453999985,-0.941162109375,0.309814453125,0.0029296875,-1.3129770992366412,1.4045801526717556,0.7938931297709924,38227,1,0,-3.401716493566024,19331.545763753747,0.0,False,,False,,,,,30
189.205,1.738680133999992,-0.943359375,0.30859375,0.001953125,-1.282442748091603,1.618320610687023,0.8549618320610687,38226,0,0,-3.404188417394149,19586.48360744617,0.0,False,,False,,,,,30
189.205,1.7406817779999528,-0.943359375,0.30859375,0.001953125,-1.282442748091603,1.618320610687023,0.8549618320610687,38226,0,0,-3.404188417394149,19586.48360744617,0.0,False,,False,,,,,30
189.205,1.74268223699994,-0.943359375,0.30859375,0.001953125,-1.282442748091603,1.618320610687023,0.8549618320610687,38226,0,0,-3.404188417394149,19586.48360744617,0.0,False,,False,,,,,30
189.21,1.744684269000004,-0.942138671875,0.310302734375,0.0009765625,-1.099236641221374,1.5572519083969465,0.8549618320610687,38228,2,-3,-3.399244569737899,19799.807228053334,-0.003942,False,,False,,,,,30
189.21,1.7466864130000204,-0.942138671875,0.310302734375,0.0009765625,-1.099236641221374,1.5572519083969465,0.8549618320610687,38228,2,-3,-3.399244569737899,19799.807228053334,-0.003942,False,,False,,,,,30
189.215,1.7486880200000314,-0.94189453125,0.3095703125,0.002685546875,-0.9770992366412213,1.465648854961832,0.8549618320610687,38226,0,2,-3.404188417394149,19975.20361431302,0.002628,False,,False,,,,,30
189.215,1.7506896630000028,-0.94189453125,0.3095703125,0.002685546875,-0.9770992366412213,1.465648854961832,0.8549618320610687,38226,0,2,-3.404188417394149,19975.20361431302,0.002628,False,,False,,,,,30
189.215,1.75283750899996,-0.94189453125,0.3095703125,0.002685546875,-0.9770992366412213,1.465648854961832,0.8549618320610687,38226,0,2,-3.404188417394149,19975.20361431302,0.002628,False,,False,,,,,30
189.22,1.7548378190000449,-0.93994140625,0.30615234375,0.00244140625,-0.9770992366412213,1.4961832061068703,0.916030534351145,38228,5,0,-3.399244569737899,20116.305305990332,0.0,False,,False,,,,,30
189.22,1.7568401849999873,-0.93994140625,0.30615234375,0.00244140625,-0.9770992366412213,1.4961832061068703,0.916030534351145,38228,5,0,-3.399244569737899,20116.305305990332,0.0,False,,False,,,,,30
189.225,1.7588410700000168,-0.943603515625,0.31103515625,0.00341796875,-1.0381679389312977,1.4961832061068703,0.8854961832061068,38227,3,4,-3.401716493566024,20226.653797578125,0.005256,False,,False,,,,,30
189.225,1.760842010000033,-0.943603515625,0.31103515625,0.00341796875,-1.0381679389312977,1.4961832061068703,0.8854961832061068,38227,3,4,-3.401716493566024,20226.653797578125,0.005256,False,,False,,,,,30
189.225,1.7628448020000178,-0.943603515625,0.31103515625,0.00341796875,-1.0381679389312977,1.4961832061068703,0.8854961832061068,38227,3,4,-3.401716493566024,20226.653797578125,0.005256,False,,False,,,,,30
189.23,1.7648428899999544,-0.944091796875,0.308837890625,0.000244140625,-1.0076335877862594,1.4351145038167938,0.732824427480916,38228,0,6,-3.399244569737899,20309.657685964827,0.007884,False,,False,,,,,30
189.23,1.7668438299999707,-0.944091796875,0.308837890625,0.000244140625,-1.0076335877862594,1.4351145038167938,0.732824427480916,38228,0,6,-3.399244569737899,20309.657685964827,0.007884,False,,False,,,,,30
189.235,1.7690233419999686,-0.94287109375,0.3125,-0.000244140625,-1.0076335877862594,1.4045801526717556,0.8244274809160305,38227,-3,1,-3.401716493566024,20368.564929193188,0.001314,False,,False,,,,,30
189.235,1.771278594000023,-0.94287109375,0.3125,-0.000244140625,-1.0076335877862594,1.4045801526717556,0.8244274809160305,38227,-3,1,-3.401716493566024,20368.564929193188,0.001314,False,,False,,,,,30
189.24,1.7732786450000049,-0.94580078125,0.307373046875,-0.00244140625,-0.5801526717557252,1.4045801526717556,0.8549618320610687,38228,0,0,-3.399244569737899,20406.445530142173,0.0,False,,False,,,,,30
189.24,1.775281232999987,-0.94580078125,0.307373046875,-0.00244140625,-0.5801526717557252,1.4045801526717556,0.8549618320610687,38228,0,0,-3.399244569737899,20406.445530142173,0.0,False,,False,,,,,30
189.24,1.7772836359999928,-0.94580078125,0.307373046875,-0.00244140625,-0.5801526717557252,1.4045801526717556,0.8549618320610687,38228,0,0,-3.399244569737899,20406.445530142173,0.0,False,,False,,,,,30
189.245,1.7792845950000356,-0.94189453125,0.304931640625,-0.00048828125,-0.8244274809160305,1.4045801526717556,0.6717557251908397,38227,0,-7,-3.401716493566024,20426.174246098813,-0.009198,False,,False,,,,,30
189.245,1.7812854239999751,-0.94189453125,0.304931640625,-0.00048828125,-0.8244274809160305,1.4045801526717556,0.6717557251908397,38227,0,-7,-3.401716493566024,20426.174246098813,-0.009198,False,,False,,,,,30
189.25,1.783301233999964,-0.942626953125,0.30419921875,-0.0009765625,-0.732824427480916,1.3129770992366412,0.6717557251908397,38228,3,-2,-3.399244569737899,20430.42073250098,-0.002628,False,,False,,,,,30
189.25,1.7853073039999572,-0.942626953125,0.30419921875,-0.0009765625,-0.732824427480916,1.3129770992366412,0.6717557251908397,38228,3,-2,-3.399244569737899,20430.42073250098,-0.002628,False,,False,,,,,30
189.25,1.7873066879999442,-0.942626953125,0.30419921875,-0.0009765625,-0.732824427480916,1.3129770992366412,0.6717557251908397,38228,3,-2,-3.399244569737899,20430.42073250098,-0.002628,False,,False,,,,,30
189.255,1.7893119430000297,-0.944580078125,0.3056640625,-0.001953125,-0.7633587786259541,1.4351145038167938,0.732824427480916,38228,-2,-4,-3.399244569737899,20421.646053218556,-0.005256,False,,False,,,,,30
189.255,1.791308402000027,-0.944580078125,0.3056640625,-0.001953125,-0.7633587786259541,1.4351145038167938,0.732824427480916,38228,-2,-4,-3.399244569737899,20421.646053218556,-0.005256,False,,False,,,,,30
189.26,1.7933110449999958,-0.946533203125,0.304931640625,-0.003662109375,-0.6717557251908397,1.2519083969465647,0.732824427480916,38229,9,3,-3.396772645909774,20402.099199826218,0.003942,False,,False,,,,,30
189.26,1.7953120219999619,-0.946533203125,0.304931640625,-0.003662109375,-0.6717557251908397,1.2519083969465647,0.732824427480916,38229,9,3,-3.396772645909774,20402.099199826218,0.003942,False,,False,,,,,30
189.26,1.7973131850000073,-0.946533203125,0.304931640625,-0.003662109375,-0.6717557251908397,1.2519083969465647,0.732824427480916,38229,9,3,-3.396772645909774,20402.099199826218,0.003942,False,,False,,,,,30
189.26500000000001,1.799317588000008,-0.945556640625,0.2998046875,-0.00537109375,-0.7938931297709924,1.1908396946564885,0.6412213740458015,38228,0,-2,-3.399244569737899,20373.81545933078,-0.002628,False,,False,,,,,30
189.26500000000001,1.80131621299995,-0.945556640625,0.2998046875,-0.00537109375,-0.7938931297709924,1.1908396946564885,0.6412213740458015,38228,0,-2,-3.399244569737899,20373.81545933078,-0.002628,False,,False,,,,,30
189.27,1.8033228749999353,-0.943115234375,0.305419921875,-0.005126953125,-0.8244274809160305,1.2213740458015268,0.6412213740458015,38228,-1,-2,-3.399244569737899,20338.623515055297,-0.002628,False,,False,,,,,30
189.27,1.8054527580000013,-0.943115234375,0.305419921875,-0.005126953125,-0.8244274809160305,1.2213740458015268,0.6412213740458015,38228,-1,-2,-3.399244569737899,20338.623515055297,-0.002628,False,,False,,,,,30
189.27,1.8074544569999489,-0.943115234375,0.305419921875,-0.005126953125,-0.8244274809160305,1.2213740458015268,0.6412213740458015,38228,-1,-2,-3.399244569737899,20338.623515055297,-0.002628,False,,False,,,,,30
189.275,1.8095527670000138,-0.947998046875,0.3017578125,-0.006591796875,-0.8244274809160305,1.3740458015267174,0.5190839694656488,38230,10,-3,-3.394300722081649,20298.161546396987,-0.003942,False,,False,,,,,30
189.275,1.8115539660000195,-0.947998046875,0.3017578125,-0.006591796875,-0.8244274809160305,1.3740458015267174,0.5190839694656488,38230,10,-3,-3.394300722081649,20298.161546396987,-0.003942,False,,False,,,,,30
189.28,1.8159045090000063,-0.945556640625,0.2998046875,-0.00439453125,-0.9770992366412213,1.2519083969465647,0.6106870229007634,38230,5,-1,-3.394300722081649,20253.8791429924,-0.001314,False,,False,,,,,30
189.285,1.8179037820000303,-0.94677734375,0.3017578125,-0.0048828125,-0.916030534351145,1.099236641221374,0.549618320610687,38230,7,-2,-3.394300722081649,20207.036267757452,-0.002628,False,,False,,,,,30
189.285,1.8199055549999912,-0.94677734375,0.3017578125,-0.0048828125,-0.916030534351145,1.099236641221374,0.549618320610687,38230,7,-2,-3.394300722081649,20207.036267757452,-0.002628,False,,False,,,,,30
189.285,1.8219071070000155,-0.94677734375,0.3017578125,-0.0048828125,-0.916030534351145,1.099236641221374,0.549618320610687,38230,7,-2,-3.394300722081649,20207.036267757452,-0.002628,False,,False,,,,,30
189.29,1.8239095840000346,-0.943603515625,0.30322265625,-0.009521484375,-1.0076335877862594,1.129770992366412,0.732824427480916,38228,-1,0,-3.399244569737899,20158.721250372284,0.0,False,,False,,,,,30
189.29,1.825910246000035,-0.943603515625,0.30322265625,-0.009521484375,-1.0076335877862594,1.129770992366412,0.732824427480916,38228,-1,0,-3.399244569737899,20158.721250372284,0.0,False,,False,,,,,30
189.29500000000002,1.8279132599999457,-0.94775390625,0.2998046875,-0.002685546875,-1.0687022900763359,1.1908396946564885,0.5190839694656488,38229,0,5,-3.396772645909774,20109.871918507775,0.0065699999999999995,False,,False,,,,,30
189.29500000000002,1.829913329999954,-0.94775390625,0.2998046875,-0.002685546875,-1.0687022900763359,1.1908396946564885,0.5190839694656488,38229,0,5,-3.396772645909774,20109.871918507775,0.0065699999999999995,False,,False,,,,,30
189.29500000000002,1.8319119919999594,-0.94775390625,0.2998046875,-0.002685546875,-1.0687022900763359,1.1908396946564885,0.5190839694656488,38229,0,5,-3.396772645909774,20109.871918507775,0.0065699999999999995,False,,False,,,,,30
189.3,1.833917376000045,-0.947265625,0.30126953125,-0.002685546875,-1.3435114503816794,1.1603053435114503,0.6412213740458015,38229,2,1,-3.396772645909774,20061.28830676618,0.001314,False,,False,,,,,30
189.3,1.8359174089999897,-0.947265625,0.30126953125,-0.002685546875,-1.3435114503816794,1.1603053435114503,0.6412213740458015,38229,2,1,-3.396772645909774,20061.28830676618,0.001314,False,,False,,,,,30
189.3,1.8379184049999822,-0.947265625,0.30126953125,-0.002685546875,-1.3435114503816794,1.1603053435114503,0.6412213740458015,38229,2,1,-3.396772645909774,20061.28830676618,0.001314,False,,False,,,,,30
189.305,1.8399269189999359,-0.947998046875,0.29833984375,-0.00537109375,-1.4045801526717556,1.2519083969465647,0.549618320610687,38230,-1,-7,-3.394300722081649,20013.63454951888,-0.009198,False,,False,,,,,30
189.305,1.841929858999947,-0.947998046875,0.29833984375,-0.00537109375,-1.4045801526717556,1.2519083969465647,0.549618320610687,38230,-1,-7,-3.394300722081649,20013.63454951888,-0.009198,False,,False,,,,,30
189.31,1.843930169000032,-0.947265625,0.302001953125,-0.00439453125,-1.2519083969465647,1.1908396946564885,0.5801526717557252,38230,3,-3,-3.394300722081649,19967.449596319904,-0.003942,False,,False,,,,,30
189.31,1.8459314790000008,-0.947265625,0.302001953125,-0.00439453125,-1.2519083969465647,1.1908396946564885,0.5801526717557252,38230,3,-3,-3.394300722081649,19967.449596319904,-0.003942,False,,False,,,,,30
189.315,1.847932789999959,-0.94677734375,0.303466796875,-0.0048828125,-1.5267175572519083,1.282442748091603,0.5190839694656488,38229,2,-2,-3.396772645909774,19923.159786676213,-0.002628,False,,False,,,,,30
189.315,1.8499314709999908,-0.94677734375,0.303466796875,-0.0048828125,-1.5267175572519083,1.282442748091603,0.5190839694656488,38229,2,-2,-3.396772645909774,19923.159786676213,-0.002628,False,,False,,,,,30
189.315,1.8519382069999892,-0.94677734375,0.303466796875,-0.0048828125,-1.5267175572519083,1.282442748091603,0.5190839694656488,38229,2,-2,-3.396772645909774,19923.159786676213,-0.002628,False,,False,,,,,30
189.32,1.8539373689999366,-0.95068359375,0.3037109375,-0.006591796875,-1.4045801526717556,1.3129770992366412,0.5801526717557252,38229,6,0,-3.396772645909774,19881.09458977472,0.0,False,,False,,,,,30
189.32,1.855935919999979,-0.95068359375,0.3037109375,-0.006591796875,-1.4045801526717556,1.3129770992366412,0.5801526717557252,38229,6,0,-3.396772645909774,19881.09458977472,0.0,False,,False,,,,,30
189.32500000000002,1.8579394900000352,-0.951416015625,0.304443359375,-0.005126953125,-1.5572519083969465,1.465648854961832,0.6412213740458015,38228,-10,-1,-3.399244569737899,19841.5011848259,-0.001314,False,,False,,,,,30
189.32500000000002,1.8599404489999642,-0.951416015625,0.304443359375,-0.005126953125,-1.5572519083969465,1.465648854961832,0.6412213740458015,38228,-10,-1,-3.399244569737899,19841.5011848259,-0.001314,False,,False,,,,,30
189.32500000000002,1.8619419440000229,-0.951416015625,0.304443359375,-0.005126953125,-1.5572519083969465,1.465648854961832,0.6412213740458015,38228,-10,-1,-3.399244569737899,19841.5011848259,-0.001314,False,,False,,,,,30
189.33,1.8639447179999706,-0.94921875,0.3056640625,-0.006103515625,-1.6793893129770991,1.465648854961832,0.5190839694656488,38230,4,-5,-3.394300722081649,19804.554278564778,-0.0065699999999999995,False,,False,,,,,29
189.33,1.865944935000016,-0.94921875,0.3056640625,-0.006103515625,-1.6793893129770991,1.465648854961832,0.5190839694656488,38230,4,-5,-3.394300722081649,19804.554278564778,-0.0065699999999999995,False,,False,,,,,29
189.335,1.8679464870000402,-0.94873046875,0.303466796875,-0.0068359375,-1.618320610687023,1.3435114503816794,0.5801526717557252,38229,0,-6,-3.396772645909774,19770.361793163567,-0.007884,False,,False,,,,,29
189.335,1.8699507039999617,-0.94873046875,0.303466796875,-0.0068359375,-1.618320610687023,1.3435114503816794,0.5801526717557252,38229,0,-6,-3.396772645909774,19770.361793163567,-0.007884,False,,False,,,,,29
189.335,1.8719504040000174,-0.94873046875,0.303466796875,-0.0068359375,-1.618320610687023,1.3435114503816794,0.5801526717557252,38229,0,-6,-3.396772645909774,19770.361793163567,-0.007884,False,,False,,,,,29
189.34,1.8739527699999599,-0.9482421875,0.30908203125,-0.00634765625,-1.7099236641221374,1.4961832061068703,0.549618320610687,38230,5,0,-3.394300722081649,19738.968805031654,0.0,False,,False,,,,,29
189.34,1.8759523209999998,-0.9482421875,0.30908203125,-0.00634765625,-1.7099236641221374,1.4961832061068703,0.549618320610687,38230,5,0,-3.394300722081649,19738.968805031654,0.0,False,,False,,,,,29
189.345,1.877988352999978,-0.9501953125,0.306884765625,-0.006103515625,-1.8015267175572518,1.282442748091603,0.42748091603053434,38229,2,1,-3.396772645909774,19710.372495761432,0.001314,False,,False,,,,,29
189.345,1.8799839600000041,-0.9501953125,0.306884765625,-0.006103515625,-1.8015267175572518,1.282442748091603,0.42748091603053434,38229,2,1,-3.396772645909774,19710.372495761432,0.001314,False,,False,,,,,29
189.345,1.8819885850000446,-0.9501953125,0.306884765625,-0.006103515625,-1.8015267175572518,1.282442748091603,0.42748091603053434,38229,2,1,-3.396772645909774,19710.372495761432,0.001314,False,,False,,,,,29
189.35,1.8839885810000396,-0.951416015625,0.30810546875,-0.009033203125,-1.648854961832061,1.4961832061068703,0.5801526717557252,38229,2,-3,-3.396772645909774,19684.52999111322,-0.003942,False,,False,,,,,30
189.35,1.885988316999942,-0.951416015625,0.30810546875,-0.009033203125,-1.648854961832061,1.4961832061068703,0.5801526717557252,38229,2,-3,-3.396772645909774,19684.52999111322,-0.003942,False,,False,,,,,30
189.355,1.8879977379999673,-0.951416015625,0.311767578125,-0.009033203125,-1.5572519083969465,1.4961832061068703,0.549618320610687,38229,-4,-6,-3.396772645909774,19661.367294451236,-0.007884,False,,False,,,,,30
189.355,1.8899946779999937,-0.951416015625,0.311767578125,-0.009033203125,-1.5572519083969465,1.4961832061068703,0.549618320610687,38229,-4,-6,-3.396772645909774,19661.367294451236,-0.007884,False,,False,,,,,30
189.355,1.8919986549999521,-0.951416015625,0.311767578125,-0.009033203125,-1.5572519083969465,1.4961832061068703,0.549618320610687,38229,-4,-6,-3.396772645909774,19661.367294451236,-0.007884,False,,False,,,,,30
189.36,1.8940012619999607,-0.9453125,0.317138671875,-0.010009765625,-1.2519083969465647,1.5877862595419847,0.4580152671755725,38228,-4,-2,-3.399244569737899,19640.783635505155,-0.002628,False,,False,,,,,30
189.36,1.8959993129999475,-0.9453125,0.317138671875,-0.010009765625,-1.2519083969465647,1.5877862595419847,0.4580152671755725,38228,-4,-2,-3.399244569737899,19640.783635505155,-0.002628,False,,False,,,,,30
189.365,1.8980067159999408,-0.94921875,0.318115234375,-0.010498046875,-1.282442748091603,1.3435114503816794,0.42748091603053434,38229,0,0,-3.396772645909774,19622.657289440787,0.0,False,,False,,,,,30
189.365,1.9000024900000199,-0.94921875,0.318115234375,-0.010498046875,-1.282442748091603,1.3435114503816794,0.42748091603053434,38229,0,0,-3.396772645909774,19622.657289440787,0.0,False,,False,,,,,30
189.365,1.902007096000034,-0.94921875,0.318115234375,-0.010498046875,-1.282442748091603,1.3435114503816794,0.42748091603053434,38229,0,0,-3.396772645909774,19622.657289440787,0.0,False,,False,,,,,30
189.37,1.9040073510000184,-0.9462890625,0.313720703125,-0.010009765625,-1.2213740458015268,1.2519083969465647,0.366412213740458,38230,-3,10,-3.394300722081649,19606.856123555182,0.013139999999999999,False,,False,,,,,30
189.37,1.9060055129999682,-0.9462890625,0.313720703125,-0.010009765625,-1.2213740458015268,1.2519083969465647,0.366412213740458,38230,-3,10,-3.394300722081649,19606.856123555182,0.013139999999999999,False,,False,,,,,30
189.375,1.9080123789999561,-0.94775390625,0.3173828125,-0.0087890625,-1.2519083969465647,1.1908396946564885,0.3969465648854962,38229,0,-2,-3.396772645909774,19593.23046301311,-0.002628,False,,False,,,,,30
189.375,1.9100088190000406,-0.94775390625,0.3173828125,-0.0087890625,-1.2519083969465647,1.1908396946564885,0.3969465648854962,38229,0,-2,-3.396772645909774,19593.23046301311,-0.002628,False,,False,,,,,30
189.375,1.9120146300000442,-0.94775390625,0.3173828125,-0.0087890625,-1.2519083969465647,1.1908396946564885,0.3969465648854962,38229,0,-2,-3.396772645909774,19593.23046301311,-0.002628,False,,False,,,,,30
189.38,1.9140144030000101,-0.945068359375,0.314453125,-0.011962890625,-0.9465648854961831,1.129770992366412,0.24427480916030533,38230,2,1,-3.394300722081649,19581.619905830175,0.001314,False,,False,,,,,30
189.38,1.9160156770000185,-0.945068359375,0.314453125,-0.011962890625,-0.9465648854961831,1.129770992366412,0.24427480916030533,38230,2,1,-3.394300722081649,19581.619905830175,0.001314,False,,False,,,,,30
189.385,1.9180188389999557,-0.944580078125,0.31591796875,-0.009765625,-0.7633587786259541,1.129770992366412,0.33587786259541985,38230,1,0,-3.394300722081649,19571.866345670373,0.0,False,,False,,,,,30
189.385,1.9200171859999955,-0.944580078125,0.31591796875,-0.009765625,-0.7633587786259541,1.129770992366412,0.33587786259541985,38230,1,0,-3.394300722081649,19571.866345670373,0.0,False,,False,,,,,30
189.385,1.9220219599999382,-0.944580078125,0.31591796875,-0.009765625,-0.7633587786259541,1.129770992366412,0.33587786259541985,38230,1,0,-3.394300722081649,19571.866345670373,0.0,False,,False,,,,,30
189.39000000000001,1.9240226219999386,-0.94384765625,0.31298828125,-0.009765625,-0.732824427480916,1.0381679389312977,0.3053435114503817,38229,-2,-2,-3.396772645909774,19563.806935994347,-0.002628,False,,False,,,,,30
189.39000000000001,1.9260215990000233,-0.94384765625,0.31298828125,-0.009765625,-0.732824427480916,1.0381679389312977,0.3053435114503817,38229,-2,-2,-3.396772645909774,19563.806935994347,-0.002628,False,,False,,,,,30
189.395,1.9280239459999393,-0.94580078125,0.3125,-0.01025390625,-0.6412213740458015,0.9465648854961831,0.3053435114503817,38231,7,0,-3.391828798253524,19557.28259247759,0.0,False,,False,,,,,30
189.395,1.9300242199999502,-0.94580078125,0.3125,-0.01025390625,-0.6412213740458015,0.9465648854961831,0.3053435114503817,38231,7,0,-3.391828798253524,19557.28259247759,0.0,False,,False,,,,,30
189.395,1.9320262149999508,-0.94580078125,0.3125,-0.01025390625,-0.6412213740458015,0.9465648854961831,0.3053435114503817,38231,7,0,-3.391828798253524,19557.28259247759,0.0,False,,False,,,,,30
189.4,1.9340297109999938,-0.93896484375,0.31396484375,-0.010986328125,-0.6106870229007634,0.549618320610687,0.33587786259541985,38230,2,0,-3.394300722081649,19552.141475568817,0.0,False,,False,,,,,30
189.4,1.9360297069999888,-0.93896484375,0.31396484375,-0.010986328125,-0.6106870229007634,0.549618320610687,0.33587786259541985,38230,2,0,-3.394300722081649,19552.141475568817,0.0,False,,False,,,,,30
189.405,1.9380338869999605,-0.94189453125,0.315185546875,-0.012451171875,-0.48854961832061067,0.549618320610687,0.42748091603053434,38228,-1,-1,-3.399244569737899,19548.22568653181,-0.001314,False,,False,,,,,30
189.405,1.9400331980000374,-0.94189453125,0.315185546875,-0.012451171875,-0.48854961832061067,0.549618320610687,0.42748091603053434,38228,-1,-1,-3.399244569737899,19548.22568653181,-0.001314,False,,False,,,,,30
189.405,1.942036508000001,-0.94189453125,0.315185546875,-0.012451171875,-0.48854961832061067,0.549618320610687,0.42748091603053434,38228,-1,-1,-3.399244569737899,19548.22568653181,-0.001314,False,,False,,,,,30
189.41,1.9440396329999885,-0.942138671875,0.315673828125,-0.011474609375,-0.33587786259541985,0.5801526717557252,0.5190839694656488,38230,7,-4,-3.394300722081649,19545.390655964737,-0.005256,False,,False,,,,,30
189.41,1.9460372400000097,-0.942138671875,0.315673828125,-0.011474609375,-0.33587786259541985,0.5801526717557252,0.5190839694656488,38230,7,-4,-3.394300722081649,19545.390655964737,-0.005256,False,,False,,,,,30
189.415,1.9480450690000453,-0.944580078125,0.31591796875,-0.01171875,-0.21374045801526717,0.6412213740458015,0.3969465648854962,38229,-1,1,-3.396772645909774,19543.508648885996,0.001314,False,,False,,,,,30
189.415,1.950045861000035,-0.944580078125,0.31591796875,-0.01171875,-0.21374045801526717,0.6412213740458015,0.3969465648854962,38229,-1,1,-3.396772645909774,19543.508648885996,0.001314,False,,False,,,,,30
189.415,1.9520450789999586,-0.944580078125,0.31591796875,-0.01171875,-0.21374045801526717,0.6412213740458015,0.3969465648854962,38229,-1,1,-3.396772645909774,19543.508648885996,0.001314,False,,False,,,,,30
189.42000000000002,1.954046203999951,-0.946533203125,0.315673828125,-0.013671875,-0.15267175572519084,0.8854961832061068,0.3969465648854962,38229,5,4,-3.396772645909774,19542.44996920132,0.005256,False,,False,,,,,30
189.42000000000002,1.9560458109999672,-0.946533203125,0.315673828125,-0.013671875,-0.15267175572519084,0.8854961832061068,0.3969465648854962,38229,5,4,-3.396772645909774,19542.44996920132,0.005256,False,,False,,,,,30
189.425,1.9580490839999811,-0.945556640625,0.314208984375,-0.0126953125,-0.183206106870229,0.5190839694656488,0.6717557251908397,38229,-1,-5,-3.396772645909774,19542.094110401937,-0.0065699999999999995,False,,False,,,,,30
189.425,1.9600519309999527,-0.945556640625,0.314208984375,-0.0126953125,-0.183206106870229,0.5190839694656488,0.6717557251908397,38229,-1,-5,-3.396772645909774,19542.094110401937,-0.0065699999999999995,False,,False,,,,,30
189.425,1.9620505750000348,-0.945556640625,0.314208984375,-0.0126953125,-0.183206106870229,0.5190839694656488,0.6717557251908397,38229,-1,-5,-3.396772645909774,19542.094110401937,-0.0065699999999999995,False,,False,,,,,30
189.43,1.9640563479999855,-0.94921875,0.317138671875,-0.01513671875,-0.030534351145038167,0.916030534351145,0.48854961832061067,38230,3,0,-3.394300722081649,19542.335376589523,0.0,False,,False,,,,,30
189.43,1.966054713999938,-0.94921875,0.317138671875,-0.01513671875,-0.030534351145038167,0.916030534351145,0.48854961832061067,38230,3,0,-3.394300722081649,19542.335376589523,0.0,False,,False,,,,,30
189.435,1.9680566360000284,-0.94580078125,0.314697265625,-0.013427734375,-0.12213740458015267,0.6412213740458015,0.6717557251908397,38229,0,4,-3.396772645909774,19543.073049702944,0.005256,False,,False,,,,,30
189.435,1.9700561309999784,-0.94580078125,0.314697265625,-0.013427734375,-0.12213740458015267,0.6412213740458015,0.6717557251908397,38229,0,4,-3.396772645909774,19543.073049702944,0.005256,False,,False,,,,,30
189.435,1.9720571459999974,-0.94580078125,0.314697265625,-0.013427734375,-0.12213740458015267,0.6412213740458015,0.6717557251908397,38229,0,4,-3.396772645909774,19543.073049702944,0.005256,False,,False,,,,,30
189.44,1.9740605670000377,-0.9462890625,0.31494140625,-0.014892578125,-0.0916030534351145,1.0687022900763359,1.0076335877862594,38229,0,1,-3.396772645909774,19544.212038109574,0.001314,False,,False,,,,,30
189.44,1.9760593029999427,-0.9462890625,0.31494140625,-0.014892578125,-0.0916030534351145,1.0687022900763359,1.0076335877862594,38229,0,1,-3.396772645909774,19544.212038109574,0.001314,False,,False,,,,,30
189.445,1.978062705999946,-0.949462890625,0.311279296875,-0.015380859375,-0.0916030534351145,0.9770992366412213,0.916030534351145,38230,3,0,-3.394300722081649,19545.67229060719,0.0,False,,False,,,,,30
189.445,1.9800667949999706,-0.949462890625,0.311279296875,-0.015380859375,-0.0916030534351145,0.9770992366412213,0.916030534351145,38230,3,0,-3.394300722081649,19545.67229060719,0.0,False,,False,,,,,30
189.445,1.9820647530000315,-0.949462890625,0.311279296875,-0.015380859375,-0.0916030534351145,0.9770992366412213,0.916030534351145,38230,3,0,-3.394300722081649,19545.67229060719,0.0,False,,False,,,,,30
189.45000000000002,1.984070562999932,-0.94873046875,0.314697265625,-0.01220703125,-0.061068702290076333,1.0381679389312977,1.099236641221374,38230,5,4,-3.394300722081649,19547.383926237,0.005256,False,,False,,,,,30
189.45000000000002,1.9860701149999613,-0.94873046875,0.314697265625,-0.01220703125,-0.061068702290076333,1.0381679389312977,1.099236641221374,38230,5,4,-3.394300722081649,19547.383926237,0.005256,False,,False,,,,,30
189.455,1.9880711470000278,-0.94970703125,0.318115234375,-0.01171875,-0.15267175572519084,1.0687022900763359,1.1603053435114503,38229,4,2,-3.396772645909774,19549.27763820729,0.002628,False,,False,,,,,30
189.455,1.9900705500000413,-0.94970703125,0.318115234375,-0.01171875,-0.15267175572519084,1.0687022900763359,1.1603053435114503,38229,4,2,-3.396772645909774,19549.27763820729,0.002628,False,,False,,,,,30
189.455,1.9920716199999333,-0.94970703125,0.318115234375,-0.01171875,-0.15267175572519084,1.0687022900763359,1.1603053435114503,38229,4,2,-3.396772645909774,19549.27763820729,0.002628,False,,False,,,,,30
189.46,1.9940789300000006,-0.9501953125,0.31591796875,-0.010498046875,-0.3969465648854962,1.2519083969465647,1.5267175572519083,38230,6,-4,-3.394300722081649,19551.29455695866,-0.005256,False,,False,,,,,30
189.46,1.9960752590000084,-0.9501953125,0.31591796875,-0.010498046875,-0.3969465648854962,1.2519083969465647,1.5267175572519083,38230,6,-4,-3.394300722081649,19551.29455695866,-0.005256,False,,False,,,,,30
189.465,1.9980979209999532,-0.947021484375,0.322265625,-0.01025390625,-0.366412213740458,1.4351145038167938,1.6793893129770991,38229,0,-4,-3.396772645909774,19553.38719412159,-0.005256,False,,False,,,,,30
189.465,2.00007752800002,-0.947021484375,0.322265625,-0.01025390625,-0.366412213740458,1.4351145038167938,1.6793893129770991,38229,0,-4,-3.396772645909774,19553.38719412159,-0.005256,False,,False,,,,,30
189.465,2.002080449999994,-0.947021484375,0.322265625,-0.01025390625,-0.366412213740458,1.4351145038167938,1.6793893129770991,38229,0,-4,-3.396772645909774,19553.38719412159,-0.005256,False,,False,,,,,30
189.47,2.004083612000045,-0.95263671875,0.321533203125,-0.0107421875,-0.21374045801526717,1.3435114503816794,1.6793893129770991,38229,5,-1,-3.396772645909774,19555.51111538385,-0.001314,False,,False,,,,,30
189.47,2.006084347999945,-0.95263671875,0.321533203125,-0.0107421875,-0.21374045801526717,1.3435114503816794,1.6793893129770991,38229,5,-1,-3.396772645909774,19555.51111538385,-0.001314,False,,False,,,,,30
189.475,2.0080850109999346,-0.94873046875,0.318603515625,-0.0087890625,-0.030534351145038167,1.2213740458015268,1.8015267175572518,38229,-6,-8,-3.396772645909774,19557.63045845455,-0.010512,False,,False,,,,,30
189.475,2.0100847840000142,-0.94873046875,0.318603515625,-0.0087890625,-0.030534351145038167,1.2213740458015268,1.8015267175572518,38229,-6,-8,-3.396772645909774,19557.63045845455,-0.010512,False,,False,,,,,30
189.475,2.0120874279999725,-0.94873046875,0.318603515625,-0.0087890625,-0.030534351145038167,1.2213740458015268,1.8015267175572518,38229,-6,-8,-3.396772645909774,19557.63045845455,-0.010512,False,,False,,,,,30
189.48,2.0140897940000286,-0.950439453125,0.316650390625,-0.00830078125,0.15267175572519084,1.0687022900763359,2.1068702290076335,38229,5,-1,-3.396772645909774,19559.71705690895,-0.001314,False,,False,,,,,30
189.48,2.016093029999979,-0.950439453125,0.316650390625,-0.00830078125,0.15267175572519084,1.0687022900763359,2.1068702290076335,38229,5,-1,-3.396772645909774,19559.71705690895,-0.001314,False,,False,,,,,30
189.485,2.0180923770000163,-0.95166015625,0.31689453125,-0.00732421875,0.0,1.2519083969465647,1.984732824427481,38229,0,-2,-3.396772645909774,19561.7460141908,-0.002628,False,,False,,,,,30
189.485,2.0200931319999427,-0.95166015625,0.31689453125,-0.00732421875,0.0,1.2519083969465647,1.984732824427481,38229,0,-2,-3.396772645909774,19561.7460141908,-0.002628,False,,False,,,,,30
189.485,2.0220954609999353,-0.95166015625,0.31689453125,-0.00732421875,0.0,1.2519083969465647,1.984732824427481,38229,0,-2,-3.396772645909774,19561.7460141908,-0.002628,False,,False,,,,,30
189.49,2.024097197999936,-0.948974609375,0.3173828125,-0.00390625,0.0916030534351145,1.2213740458015268,2.045801526717557,38229,9,0,-3.396772645909774,19563.697322391905,0.0,False,,False,,,,,30
189.49,2.0265438919999497,-0.948974609375,0.3173828125,-0.00390625,0.0916030534351145,1.2213740458015268,2.045801526717557,38229,9,0,-3.396772645909774,19563.697322391905,0.0,False,,False,,,,,30
189.495,2.0285440349999817,-0.9501953125,0.32080078125,-0.007568359375,0.3053435114503817,1.2519083969465647,1.8931297709923662,38228,-7,-7,-3.399244569737899,19565.55356563624,-0.009198,False,,False,,,,,30
189.495,2.0305423639999844,-0.9501953125,0.32080078125,-0.007568359375,0.3053435114503817,1.2519083969465647,1.8931297709923662,38228,-7,-7,-3.399244569737899,19565.55356563624,-0.009198,False,,False,,,,,30
189.495,2.0325433970000404,-0.9501953125,0.32080078125,-0.007568359375,0.3053435114503817,1.2519083969465647,1.8931297709923662,38228,-7,-7,-3.399244569737899,19565.55356563624,-0.009198,False,,False,,,,,30
189.5,2.034546467000041,-0.94580078125,0.322021484375,-0.006591796875,0.5801526717557252,1.1908396946564885,2.0763358778625953,38227,-10,-7,-3.401716493566024,19567.299750347775,-0.009198,False,,False,,,,,30
189.5,2.0365469250000388,-0.94580078125,0.322021484375,-0.006591796875,0.5801526717557252,1.1908396946564885,2.0763358778625953,38227,-10,-7,-3.401716493566024,19567.299750347775,-0.009198,False,,False,,,,,30
189.505,2.0385496430000103,-0.941650390625,0.321044921875,-0.005615234375,0.8549618320610687,1.3129770992366412,2.1374045801526718,38228,1,-4,-3.399244569737899,19568.93029007969,-0.005256,False,,False,,,,,30
189.505,2.0405522129999554,-0.941650390625,0.321044921875,-0.005615234375,0.8549618320610687,1.3129770992366412,2.1374045801526718,38228,1,-4,-3.399244569737899,19568.93029007969,-0.005256,False,,False,,,,,30
189.505,2.042556856000033,-0.941650390625,0.321044921875,-0.005615234375,0.8549618320610687,1.3129770992366412,2.1374045801526718,38228,1,-4,-3.399244569737899,19568.93029007969,-0.005256,False,,False,,,,,30
189.51,2.0445552779999616,-0.94091796875,0.3173828125,-0.008544921875,1.0076335877862594,0.916030534351145,2.1374045801526718,38228,-4,-2,-3.399244569737899,19570.445764286687,-0.002628,False,,False,,,,,30
189.51,2.046556958999986,-0.94091796875,0.3173828125,-0.008544921875,1.0076335877862594,0.916030534351145,2.1374045801526718,38228,-4,-2,-3.399244569737899,19570.445764286687,-0.002628,False,,False,,,,,30
189.51500000000001,2.048559953999984,-0.939453125,0.3212890625,-0.00537109375,1.099236641221374,1.0381679389312977,2.351145038167939,38229,-2,1,-3.396772645909774,19571.8447439916,0.001314,False,,False,,,,,30
189.51500000000001,2.050561393999942,-0.939453125,0.3212890625,-0.00537109375,1.099236641221374,1.0381679389312977,2.351145038167939,38229,-2,1,-3.396772645909774,19571.8447439916,0.001314,False,,False,,,,,30
189.51500000000001,2.0525644819999798,-0.939453125,0.3212890625,-0.00537109375,1.099236641221374,1.0381679389312977,2.351145038167939,38229,-2,1,-3.396772645909774,19571.8447439916,0.001314,False,,False,,,,,30
189.52,2.0545654410000225,-0.941162109375,0.3173828125,-0.005859375,1.618320610687023,0.916030534351145,2.045801526717557,38229,0,-4,-3.396772645909774,19573.12593000075,-0.005256,False,,False,,,,,30
189.52,2.056567399999949,-0.941162109375,0.3173828125,-0.005859375,1.618320610687023,0.916030534351145,2.045801526717557,38229,0,-4,-3.396772645909774,19573.12593000075,-0.005256,False,,False,,,,,30
189.525,2.058570746999976,-0.943603515625,0.3154296875,-0.00732421875,1.83206106870229,0.549618320610687,2.1068702290076335,38228,-3,-6,-3.399244569737899,19574.286360090493,-0.007884,False,,False,,,,,30
189.525,2.0605701499999896,-0.943603515625,0.3154296875,-0.00732421875,1.83206106870229,0.549618320610687,2.1068702290076335,38228,-3,-6,-3.399244569737899,19574.286360090493,-0.007884,False,,False,,,,,30
189.525,2.0625722380000298,-0.943603515625,0.3154296875,-0.00732421875,1.83206106870229,0.549618320610687,2.1068702290076335,38228,-3,-6,-3.399244569737899,19574.286360090493,-0.007884,False,,False,,,,,30
189.53,2.0645754370000304,-0.94140625,0.314453125,-0.005126953125,1.7709923664122136,0.732824427480916,2.015267175572519,38228,-1,-3,-3.399244569737899,19575.325303699476,-0.003942,False,,False,,,,,30
189.53,2.0665752479999355,-0.94140625,0.314453125,-0.005126953125,1.7709923664122136,0.732824427480916,2.015267175572519,38228,-1,-3,-3.399244569737899,19575.325303699476,-0.003942,False,,False,,,,,30
189.535,2.068577299000026,-0.938232421875,0.319580078125,-0.0048828125,1.5572519083969465,0.549618320610687,2.198473282442748,38229,3,0,-3.396772645909774,19576.251071172774,0.0,False,,False,,,,,30
189.54,2.073002914999961,-0.9345703125,0.318603515625,-0.005126953125,1.7404580152671756,0.8244274809160305,2.259541984732824,38229,4,0,-3.396772645909774,19577.072259330467,0.0,False,,False,,,,,30
189.54,2.075004984999964,-0.9345703125,0.318603515625,-0.005126953125,1.7404580152671756,0.8244274809160305,2.259541984732824,38229,4,0,-3.396772645909774,19577.072259330467,0.0,False,,False,,,,,30
189.54500000000002,2.078742626999997,-0.9365234375,0.324462890625,-0.0068359375,2.198473282442748,0.6412213740458015,2.3206106870229006,38230,7,-4,-3.394300722081649,19577.793999275746,-0.005256,False,,False,,,,,30
189.54500000000002,2.0816824270000325,-0.9365234375,0.324462890625,-0.0068359375,2.198473282442748,0.6412213740458015,2.3206106870229006,38230,7,-4,-3.394300722081649,19577.793999275746,-0.005256,False,,False,,,,,30
189.55,2.0836851440000146,-0.935546875,0.32080078125,-0.00927734375,2.5343511450381677,0.5190839694656488,2.2900763358778624,38228,0,-3,-3.399244569737899,19578.41844634473,-0.003942,False,,False,,,,,30
189.55,2.085683843999959,-0.935546875,0.32080078125,-0.00927734375,2.5343511450381677,0.5190839694656488,2.2900763358778624,38228,0,-3,-3.399244569737899,19578.41844634473,-0.003942,False,,False,,,,,30
189.55,2.0876884319999363,-0.935546875,0.32080078125,-0.00927734375,2.5343511450381677,0.5190839694656488,2.2900763358778624,38228,0,-3,-3.399244569737899,19578.41844634473,-0.003942,False,,False,,,,,30
189.555,2.0896927610000375,-0.93603515625,0.31982421875,-0.0068359375,2.687022900763359,0.42748091603053434,2.351145038167939,38229,-1,1,-3.396772645909774,19578.94881440133,0.001314,False,,False,,,,,30
189.555,2.091691479000019,-0.93603515625,0.31982421875,-0.0068359375,2.687022900763359,0.42748091603053434,2.351145038167939,38229,-1,1,-3.396772645909774,19578.94881440133,0.001314,False,,False,,,,,30
189.56,2.0936960299999328,-0.940673828125,0.318115234375,-0.005126953125,2.931297709923664,0.2748091603053435,2.2900763358778624,38228,-3,-6,-3.399244569737899,19579.394528442812,-0.007884,False,,False,,,,,30
189.56,2.095692987999996,-0.940673828125,0.318115234375,-0.005126953125,2.931297709923664,0.2748091603053435,2.2900763358778624,38228,-3,-6,-3.399244569737899,19579.394528442812,-0.007884,False,,False,,,,,30
189.56,2.097695002000023,-0.940673828125,0.318115234375,-0.005126953125,2.931297709923664,0.2748091603053435,2.2900763358778624,38228,-3,-6,-3.399244569737899,19579.394528442812,-0.007884,False,,False,,,,,30
189.565,2.0996976279999444,-0.935791015625,0.31640625,-0.006591796875,3.145038167938931,0.2748091603053435,2.381679389312977,38229,-5,-2,-3.396772645909774,19579.764705263082,-0.002628,False,,False,,,,,30
189.565,2.1016989009999634,-0.935791015625,0.31640625,-0.006591796875,3.145038167938931,0.2748091603053435,2.381679389312977,38229,-5,-2,-3.396772645909774,19579.764705263082,-0.002628,False,,False,,,,,30
189.57,2.103701229999956,-0.9375,0.31591796875,-0.00830078125,3.1755725190839694,-0.030534351145038167,2.3206106870229006,38228,3,-2,-3.399244569737899,19580.066281057574,-0.002628,False,,False,,,,,30
189.57,2.1057016700000304,-0.9375,0.31591796875,-0.00830078125,3.1755725190839694,-0.030534351145038167,2.3206106870229006,38228,3,-2,-3.399244569737899,19580.066281057574,-0.002628,False,,False,,,,,30
189.57,2.1077069250000022,-0.9375,0.31591796875,-0.00830078125,3.1755725190839694,-0.030534351145038167,2.3206106870229006,38228,3,-2,-3.399244569737899,19580.066281057574,-0.002628,False,,False,,,,,30
189.57500000000002,2.1097071980000237,-0.939453125,0.316650390625,-0.00439453125,3.2671755725190836,-0.0916030534351145,2.16793893129771,38228,-7,-1,-3.399244569737899,19580.304265981536,-0.001314,False,,False,,,,,30
189.57500000000002,2.111717008000028,-0.939453125,0.316650390625,-0.00439453125,3.2671755725190836,-0.0916030534351145,2.16793893129771,38228,-7,-1,-3.399244569737899,19580.304265981536,-0.001314,False,,False,,,,,30
189.58,2.1137127450000435,-0.940673828125,0.31494140625,-0.006103515625,3.541984732824427,-0.42748091603053434,2.16793893129771,38228,0,2,-3.399244569737899,19580.485566172705,0.002628,False,,False,,,,,30
189.58,2.1157102399999985,-0.940673828125,0.31494140625,-0.006103515625,3.541984732824427,-0.42748091603053434,2.16793893129771,38228,0,2,-3.399244569737899,19580.485566172705,0.002628,False,,False,,,,,30
189.58,2.1177123469999515,-0.940673828125,0.31494140625,-0.006103515625,3.541984732824427,-0.42748091603053434,2.16793893129771,38228,0,2,-3.399244569737899,19580.485566172705,0.002628,False,,False,,,,,30
189.585,2.1197145459999547,-0.94189453125,0.312744140625,-0.00537109375,3.6030534351145036,-0.33587786259541985,2.045801526717557,38229,4,2,-3.396772645909774,19580.620365508206,0.002628,False,,False,,,,,30
189.585,2.1217147270000396,-0.94189453125,0.312744140625,-0.00537109375,3.6030534351145036,-0.33587786259541985,2.045801526717557,38229,4,2,-3.396772645909774,19580.620365508206,0.002628,False,,False,,,,,30
189.59,2.123716797000043,-0.937744140625,0.31005859375,-0.003173828125,3.6030534351145036,-0.48854961832061067,2.015267175572519,38228,-3,2,-3.399244569737899,19580.714282379926,0.002628,False,,False,,,,,29
189.59,2.1257172550000405,-0.937744140625,0.31005859375,-0.003173828125,3.6030534351145036,-0.48854961832061067,2.015267175572519,38228,-3,2,-3.399244569737899,19580.714282379926,0.002628,False,,False,,,,,29
189.59,2.1277207699999963,-0.937744140625,0.31005859375,-0.003173828125,3.6030534351145036,-0.48854961832061067,2.015267175572519,38228,-3,2,-3.399244569737899,19580.714282379926,0.002628,False,,False,,,,,29
189.595,2.129721616999973,-0.939697265625,0.3134765625,-0.00439453125,3.7862595419847325,-0.7022900763358778,2.1068702290076335,38228,-4,6,-3.399244569737899,19580.76903164678,0.007884,False,,False,,,,,29
189.595,2.1317221680000102,-0.939697265625,0.3134765625,-0.00439453125,3.7862595419847325,-0.7022900763358778,2.1068702290076335,38228,-4,6,-3.399244569737899,19580.76903164678,0.007884,False,,False,,,,,29
189.6,2.133728108000014,-0.94189453125,0.307861328125,-0.005859375,3.7557251908396947,-1.0076335877862594,2.1374045801526718,38228,0,-7,-3.399244569737899,19580.790197375893,-0.009198,False,,False,,,,,30
189.6,2.1357261219999373,-0.94189453125,0.307861328125,-0.005859375,3.7557251908396947,-1.0076335877862594,2.1374045801526718,38228,0,-7,-3.399244569737899,19580.790197375893,-0.009198,False,,False,,,,,30
189.6,2.1377275810000356,-0.94189453125,0.307861328125,-0.005859375,3.7557251908396947,-1.0076335877862594,2.1374045801526718,38228,0,-7,-3.399244569737899,19580.790197375893,-0.009198,False,,False,,,,,30
189.605,2.1397307249999358,-0.935546875,0.311279296875,-0.00634765625,3.847328244274809,-1.0076335877862594,2.045801526717557,38228,0,-6,-3.399244569737899,19580.78473146547,-0.007884,False,,False,,,,,30
189.605,2.141728738999973,-0.935546875,0.311279296875,-0.00634765625,3.847328244274809,-1.0076335877862594,2.045801526717557,38228,0,-6,-3.399244569737899,19580.78473146547,-0.007884,False,,False,,,,,30
189.61,2.1437355859999343,-0.93896484375,0.307373046875,-0.00634765625,4.0,-1.099236641221374,1.9541984732824427,38228,0,-3,-3.399244569737899,19580.75704921782,-0.003942,False,,False,,,,,30
189.61,2.145736395999961,-0.93896484375,0.307373046875,-0.00634765625,4.0,-1.099236641221374,1.9541984732824427,38228,0,-3,-3.399244569737899,19580.75704921782,-0.003942,False,,False,,,,,30
189.61,2.147737187999951,-0.93896484375,0.307373046875,-0.00634765625,4.0,-1.099236641221374,1.9541984732824427,38228,0,-3,-3.399244569737899,19580.75704921782,-0.003942,False,,False,,,,,30
189.615,2.1497369060000437,-0.9404296875,0.306396484375,-0.00830078125,3.9083969465648853,-1.099236641221374,1.9236641221374045,38228,1,-4,-3.399244569737899,19580.71116888503,-0.005256,False,,False,,,,,30
189.615,2.1517396240000153,-0.9404296875,0.306396484375,-0.00830078125,3.9083969465648853,-1.099236641221374,1.9236641221374045,38228,1,-4,-3.399244569737899,19580.71116888503,-0.005256,False,,False,,,,,30
189.62,2.153741953000008,-0.9443359375,0.305419921875,-0.005615234375,3.9389312977099236,-0.9770992366412213,2.015267175572519,38229,3,-3,-3.396772645909774,19580.65250860966,-0.003942,False,,False,,,,,30
189.62,2.1557410780000055,-0.9443359375,0.305419921875,-0.005615234375,3.9389312977099236,-0.9770992366412213,2.015267175572519,38229,3,-3,-3.396772645909774,19580.65250860966,-0.003942,False,,False,,,,,30
189.62,2.157742426000027,-0.9443359375,0.305419921875,-0.005615234375,3.9389312977099236,-0.9770992366412213,2.015267175572519,38229,3,-3,-3.396772645909774,19580.65250860966,-0.003942,False,,False,,,,,30
189.625,2.1597433099999535,-0.94677734375,0.31005859375,-0.008544921875,4.122137404580153,-0.9465648854961831,1.8931297709923662,38228,0,-1,-3.399244569737899,19580.583998996593,-0.001314,False,,False,,,,,30
189.625,2.1617420830000356,-0.94677734375,0.31005859375,-0.008544921875,4.122137404580153,-0.9465648854961831,1.8931297709923662,38228,0,-1,-3.399244569737899,19580.583998996593,-0.001314,False,,False,,,,,30
189.63,2.163748338000005,-0.944580078125,0.30712890625,-0.00830078125,4.061068702290076,-0.916030534351145,2.0763358778625953,38228,-5,0,-3.399244569737899,19580.504655170393,0.0,False,,False,,,,,30
189.63,2.1657465929999944,-0.944580078125,0.30712890625,-0.00830078125,4.061068702290076,-0.916030534351145,2.0763358778625953,38228,-5,0,-3.399244569737899,19580.504655170393,0.0,False,,False,,,,,30
189.63,2.167750125999987,-0.944580078125,0.30712890625,-0.00830078125,4.061068702290076,-0.916030534351145,2.0763358778625953,38228,-5,0,-3.399244569737899,19580.504655170393,0.0,False,,False,,,,,30
189.635,2.1697528249999323,-0.94970703125,0.3076171875,-0.008544921875,4.0,-1.0687022900763359,2.045801526717557,38230,3,-1,-3.394300722081649,19580.420971580366,-0.001314,False,,False,,,,,30
189.635,2.1718519119999655,-0.94970703125,0.3076171875,-0.008544921875,4.0,-1.0687022900763359,2.045801526717557,38230,3,-1,-3.394300722081649,19580.420971580366,-0.001314,False,,False,,,,,30
189.64000000000001,2.173852647999979,-0.946533203125,0.3056640625,-0.009033203125,3.969465648854962,-0.732824427480916,1.9236641221374045,38228,-1,-6,-3.399244569737899,19580.336657624703,-0.007884,False,,False,,,,,30
189.64000000000001,2.175853773999961,-0.946533203125,0.3056640625,-0.009033203125,3.969465648854962,-0.732824427480916,1.9236641221374045,38228,-1,-6,-3.399244569737899,19580.336657624703,-0.007884,False,,False,,,,,30
189.64000000000001,2.177855898999951,-0.946533203125,0.3056640625,-0.009033203125,3.969465648854962,-0.732824427480916,1.9236641221374045,38228,-1,-6,-3.399244569737899,19580.336657624703,-0.007884,False,,False,,,,,30
189.645,2.1798570800000334,-0.947509765625,0.306640625,-0.005615234375,4.061068702290076,-0.7938931297709924,1.7709923664122136,38228,-2,0,-3.399244569737899,19580.245875354598,0.0,False,,False,,,,,30
189.645,2.181858148999936,-0.947509765625,0.306640625,-0.005615234375,4.061068702290076,-0.7938931297709924,1.7709923664122136,38228,-2,0,-3.399244569737899,19580.245875354598,0.0,False,,False,,,,,30
189.65,2.1838596080000343,-0.949462890625,0.305908203125,-0.003662109375,3.8167938931297707,-0.8549618320610687,1.8625954198473282,38228,-1,-6,-3.399244569737899,19580.15099306861,-0.007884,False,,False,,,,,30
189.65,2.1858601400000452,-0.949462890625,0.305908203125,-0.003662109375,3.8167938931297707,-0.8549618320610687,1.8625954198473282,38228,-1,-6,-3.399244569737899,19580.15099306861,-0.007884,False,,False,,,,,30
189.65,2.187859655000011,-0.949462890625,0.305908203125,-0.003662109375,3.8167938931297707,-0.8549618320610687,1.8625954198473282,38228,-1,-6,-3.399244569737899,19580.15099306861,-0.007884,False,,False,,,,,30
189.655,2.189863206000041,-0.950439453125,0.309814453125,-0.0029296875,3.8167938931297707,-0.8854961832061068,1.6793893129770991,38228,0,-2,-3.399244569737899,19580.057633866978,-0.002628,False,,False,,,,,30
189.655,2.191863497999975,-0.950439453125,0.309814453125,-0.0029296875,3.8167938931297707,-0.8854961832061068,1.6793893129770991,38228,0,-2,-3.399244569737899,19580.057633866978,-0.002628,False,,False,,,,,30
189.66,2.1938670119999415,-0.9521484375,0.3046875,-0.00390625,3.7557251908396947,-0.7633587786259541,1.6793893129770991,38229,-4,-6,-3.396772645909774,19579.968692736966,-0.007884,False,,False,,,,,30
189.66,2.195866821999971,-0.9521484375,0.3046875,-0.00390625,3.7557251908396947,-0.7633587786259541,1.6793893129770991,38229,-4,-6,-3.396772645909774,19579.968692736966,-0.007884,False,,False,,,,,30
189.66,2.1978696139999556,-0.9521484375,0.3046875,-0.00390625,3.7557251908396947,-0.7633587786259541,1.6793893129770991,38229,-4,-6,-3.396772645909774,19579.968692736966,-0.007884,False,,False,,,,,30
189.665,2.1998710729999402,-0.951904296875,0.3046875,-0.00390625,3.633587786259542,-0.732824427480916,1.83206106870229,38228,-3,-8,-3.399244569737899,19579.884738801236,-0.010512,False,,False,,,,,30
189.665,2.2018724199999724,-0.951904296875,0.3046875,-0.00390625,3.633587786259542,-0.732824427480916,1.83206106870229,38228,-3,-8,-3.399244569737899,19579.884738801236,-0.010512,False,,False,,,,,30
189.67000000000002,2.2038735820000284,-0.95263671875,0.307861328125,-0.006103515625,3.480916030534351,-0.7633587786259541,1.618320610687023,38229,-1,-2,-3.396772645909774,19579.80438576615,-0.002628,False,,False,,,,,30
189.67000000000002,2.2058762259999867,-0.95263671875,0.307861328125,-0.006103515625,3.480916030534351,-0.7633587786259541,1.618320610687023,38229,-1,-2,-3.396772645909774,19579.80438576615,-0.002628,False,,False,,,,,30
189.67000000000002,2.207875276999971,-0.95263671875,0.307861328125,-0.006103515625,3.480916030534351,-0.7633587786259541,1.618320610687023,38229,-1,-2,-3.396772645909774,19579.80438576615,-0.002628,False,,False,,,,,30
189.675,2.209878549999985,-0.951904296875,0.305908203125,-0.006591796875,3.480916030534351,-0.7022900763358778,1.7099236641221374,38230,10,-4,-3.394300722081649,19579.731792399347,-0.005256,False,,False,,,,,30
189.675,2.2118798420000303,-0.951904296875,0.305908203125,-0.006591796875,3.480916030534351,-0.7022900763358778,1.7099236641221374,38230,10,-4,-3.394300722081649,19579.731792399347,-0.005256,False,,False,,,,,30
189.68,2.21388054199997,-0.9501953125,0.310546875,-0.00634765625,3.3893129770992365,-0.8549618320610687,1.8015267175572518,38228,2,-7,-3.399244569737899,19579.664956420907,-0.009198,False,,False,,,,,30
189.68,2.2158806479999384,-0.9501953125,0.310546875,-0.00634765625,3.3893129770992365,-0.8549618320610687,1.8015267175572518,38228,2,-7,-3.399244569737899,19579.664956420907,-0.009198,False,,False,,,,,30
189.685,2.2178822549999495,-0.95458984375,0.30859375,-0.007080078125,3.236641221374046,-0.7633587786259541,1.7709923664122136,38229,0,-10,-3.396772645909774,19579.598537144775,-0.013139999999999999,False,,False,,,,,30
189.685,2.2198834539999552,-0.95458984375,0.30859375,-0.007080078125,3.236641221374046,-0.7633587786259541,1.7709923664122136,38229,0,-10,-3.396772645909774,19579.598537144775,-0.013139999999999999,False,,False,,,,,30
189.685,2.2218882829999984,-0.95458984375,0.30859375,-0.007080078125,3.236641221374046,-0.7633587786259541,1.7709923664122136,38229,0,-10,-3.396772645909774,19579.598537144775,-0.013139999999999999,False,,False,,,,,30
189.69,2.223891705000028,-0.950439453125,0.30615234375,-0.0068359375,3.1755725190839694,-0.6412213740458015,1.7099236641221374,38228,-7,1,-3.399244569737899,19579.535219426194,0.001314,False,,False,,,,,30
189.69,2.2258887000000414,-0.950439453125,0.30615234375,-0.0068359375,3.1755725190839694,-0.6412213740458015,1.7099236641221374,38228,-7,1,-3.399244569737899,19579.535219426194,0.001314,False,,False,,,,,30
189.695,2.2278928260000157,-0.949462890625,0.306640625,-0.007568359375,3.2671755725190836,-0.549618320610687,1.618320610687023,38228,-2,1,-3.399244569737899,19579.47541554113,0.001314,False,,False,,,,,30
189.695,2.2298923030000424,-0.949462890625,0.306640625,-0.007568359375,3.2671755725190836,-0.549618320610687,1.618320610687023,38228,-2,1,-3.399244569737899,19579.47541554113,0.001314,False,,False,,,,,30
189.695,2.2318951129999505,-0.949462890625,0.306640625,-0.007568359375,3.2671755725190836,-0.549618320610687,1.618320610687023,38228,-2,1,-3.399244569737899,19579.47541554113,0.001314,False,,False,,,,,30
189.70000000000002,2.2338973119999537,-0.94921875,0.30419921875,-0.00634765625,2.931297709923664,-0.5801526717557252,1.5877862595419847,38228,0,2,-3.399244569737899,19579.4194197351,0.002628,False,,False,,,,,30
189.70000000000002,2.2358992150000176,-0.94921875,0.30419921875,-0.00634765625,2.931297709923664,-0.5801526717557252,1.5877862595419847,38228,0,2,-3.399244569737899,19579.4194197351,0.002628,False,,False,,,,,30
189.705,2.2378997109999546,-0.9462890625,0.3056640625,-0.005615234375,3.0534351145038165,-0.4580152671755725,1.5572519083969465,38229,2,1,-3.396772645909774,19579.371004186803,0.001314,False,,False,,,,,30
189.705,2.2398993729999574,-0.9462890625,0.3056640625,-0.005615234375,3.0534351145038165,-0.4580152671755725,1.5572519083969465,38229,2,1,-3.396772645909774,19579.371004186803,0.001314,False,,False,,,,,30
189.705,2.2419034979999424,-0.9462890625,0.3056640625,-0.005615234375,3.0534351145038165,-0.4580152671755725,1.5572519083969465,38229,2,1,-3.396772645909774,19579.371004186803,0.001314,False,,False,,,,,30
189.71,2.243904272000009,-0.9443359375,0.305908203125,-0.008056640625,2.900763358778626,-0.3969465648854962,1.4961832061068703,38228,0,-4,-3.399244569737899,19579.329636074384,-0.005256,False,,False,,,,,30
189.71,2.245906823000041,-0.9443359375,0.305908203125,-0.008056640625,2.900763358778626,-0.3969465648854962,1.4961832061068703,38228,0,-4,-3.399244569737899,19579.329636074384,-0.005256,False,,False,,,,,30
189.715,2.247905447999983,-0.9423828125,0.3076171875,-0.006103515625,2.9618320610687023,-0.33587786259541985,1.3129770992366412,38228,-5,0,-3.399244569737899,19579.29118622655,0.0,False,,False,,,,,30
189.715,2.2499067769999783,-0.9423828125,0.3076171875,-0.006103515625,2.9618320610687023,-0.33587786259541985,1.3129770992366412,38228,-5,0,-3.399244569737899,19579.29118622655,0.0,False,,False,,,,,30
189.715,2.251909957999942,-0.9423828125,0.3076171875,-0.006103515625,2.9618320610687023,-0.33587786259541985,1.3129770992366412,38228,-5,0,-3.399244569737899,19579.29118622655,0.0,False,,False,,,,,30
189.72,2.253913083000043,-0.94091796875,0.306640625,-0.0048828125,2.900763358778626,-0.366412213740458,1.4351145038167938,38229,-1,2,-3.396772645909774,19579.257527012865,0.002628,False,,False,,,,,29
189.72,2.255913633999967,-0.94091796875,0.306640625,-0.0048828125,2.900763358778626,-0.366412213740458,1.4351145038167938,38229,-1,2,-3.396772645909774,19579.257527012865,0.002628,False,,False,,,,,29
189.725,2.2579155559999435,-0.94287109375,0.305908203125,-0.006591796875,2.6259541984732824,-0.2748091603053435,1.129770992366412,38228,0,-1,-3.399244569737899,19579.230156546153,-0.001314,False,,False,,,,,29
189.725,2.2599162550000074,-0.94287109375,0.305908203125,-0.006591796875,2.6259541984732824,-0.2748091603053435,1.129770992366412,38228,0,-1,-3.399244569737899,19579.230156546153,-0.001314,False,,False,,,,,29
189.725,2.261919212999942,-0.94287109375,0.305908203125,-0.006591796875,2.6259541984732824,-0.2748091603053435,1.129770992366412,38228,0,-1,-3.399244569737899,19579.230156546153,-0.001314,False,,False,,,,,29
189.73,2.263919838999982,-0.943115234375,0.305419921875,-0.004150390625,2.717557251908397,-0.3969465648854962,1.1908396946564885,38229,3,2,-3.396772645909774,19579.206656907303,0.002628,False,,False,,,,,29
189.73,2.26591870499999,-0.943115234375,0.305419921875,-0.004150390625,2.717557251908397,-0.3969465648854962,1.1908396946564885,38229,3,2,-3.396772645909774,19579.206656907303,0.002628,False,,False,,,,,29
189.735,2.267920774000004,-0.944091796875,0.305908203125,-0.00537109375,2.595419847328244,-0.2748091603053435,1.1603053435114503,38228,2,0,-3.399244569737899,19579.186738286946,0.0,False,,False,,,,,29
189.735,2.2699214550000306,-0.944091796875,0.305908203125,-0.00537109375,2.595419847328244,-0.2748091603053435,1.1603053435114503,38228,2,0,-3.399244569737899,19579.186738286946,0.0,False,,False,,,,,29
189.735,2.2720418200000267,-0.944091796875,0.305908203125,-0.00537109375,2.595419847328244,-0.2748091603053435,1.1603053435114503,38228,2,0,-3.399244569737899,19579.186738286946,0.0,False,,False,,,,,29
189.74,2.2739260390000027,-0.94580078125,0.3046875,-0.007080078125,2.4732824427480917,-0.061068702290076333,1.282442748091603,38228,-3,-2,-3.399244569737899,19579.168315680596,-0.002628,False,,False,,,,,30
189.74,2.2759253120000267,-0.94580078125,0.3046875,-0.007080078125,2.4732824427480917,-0.061068702290076333,1.282442748091603,38228,-3,-2,-3.399244569737899,19579.168315680596,-0.002628,False,,False,,,,,30
189.745,2.2779269929999373,-0.943603515625,0.304931640625,-0.007568359375,2.351145038167939,-0.183206106870229,1.1603053435114503,38229,0,-3,-3.396772645909774,19579.15320289754,-0.003942,False,,False,,,,,30
189.745,2.279928543999972,-0.943603515625,0.304931640625,-0.007568359375,2.351145038167939,-0.183206106870229,1.1603053435114503,38229,0,-3,-3.396772645909774,19579.15320289754,-0.003942,False,,False,,,,,30
189.745,2.2819307249999383,-0.943603515625,0.304931640625,-0.007568359375,2.351145038167939,-0.183206106870229,1.1603053435114503,38229,0,-3,-3.396772645909774,19579.15320289754,-0.003942,False,,False,,,,,30
189.75,2.2839354430000185,-0.945556640625,0.308837890625,-0.0048828125,2.229007633587786,-0.0916030534351145,1.1603053435114503,38229,4,-5,-3.396772645909774,19579.1446609813,-0.0065699999999999995,False,,False,,,,,29
189.75,2.285932604999971,-0.945556640625,0.308837890625,-0.0048828125,2.229007633587786,-0.0916030534351145,1.1603053435114503,38229,4,-5,-3.396772645909774,19579.1446609813,-0.0065699999999999995,False,,False,,,,,29
189.755,2.2879356189999953,-0.94384765625,0.306396484375,-0.00537109375,2.015267175572519,-0.061068702290076333,1.1603053435114503,38228,4,-5,-3.399244569737899,19579.138162810254,-0.0065699999999999995,False,,False,,,,,29
189.755,2.289937151999993,-0.94384765625,0.306396484375,-0.00537109375,2.015267175572519,-0.061068702290076333,1.1603053435114503,38228,4,-5,-3.399244569737899,19579.138162810254,-0.0065699999999999995,False,,False,,,,,29
189.755,2.291939444000036,-0.94384765625,0.306396484375,-0.00537109375,2.015267175572519,-0.061068702290076333,1.1603053435114503,38228,4,-5,-3.399244569737899,19579.138162810254,-0.0065699999999999995,False,,False,,,,,29
189.76,2.2939407169999413,-0.943115234375,0.3076171875,-0.007080078125,1.9236641221374045,0.061068702290076333,1.129770992366412,38227,-6,-4,-3.401716493566024,19579.128098249905,-0.005256,False,,False,,,,,30
189.76,2.2959411570000157,-0.943115234375,0.3076171875,-0.007080078125,1.9236641221374045,0.061068702290076333,1.129770992366412,38227,-6,-4,-3.401716493566024,19579.128098249905,-0.005256,False,,False,,,,,30
189.76500000000001,2.2979417640000293,-0.941650390625,0.304931640625,-0.00439453125,1.5267175572519083,0.0916030534351145,1.3740458015267174,38228,5,2,-3.399244569737899,19579.116984280165,0.002628,False,,False,,,,,30
189.76500000000001,2.299941851999961,-0.941650390625,0.304931640625,-0.00439453125,1.5267175572519083,0.0916030534351145,1.3740458015267174,38228,5,2,-3.399244569737899,19579.116984280165,0.002628,False,,False,,,,,30
189.76500000000001,2.3019448659999853,-0.941650390625,0.304931640625,-0.00439453125,1.5267175572519083,0.0916030534351145,1.3740458015267174,38228,5,2,-3.399244569737899,19579.116984280165,0.002628,False,,False,,,,,30
189.77,2.3039487319999807,-0.945068359375,0.30908203125,-0.006591796875,1.3129770992366412,0.12213740458015267,1.5572519083969465,38227,-3,-2,-3.401716493566024,19579.108733777102,-0.002628,False,,False,,,,,30
189.77,2.305949727999973,-0.945068359375,0.30908203125,-0.006591796875,1.3129770992366412,0.12213740458015267,1.5572519083969465,38227,-3,-2,-3.401716493566024,19579.108733777102,-0.002628,False,,False,,,,,30
189.77,2.307947593999984,-0.945068359375,0.30908203125,-0.006591796875,1.3129770992366412,0.12213740458015267,1.5572519083969465,38227,-3,-2,-3.401716493566024,19579.108733777102,-0.002628,False,,False,,,,,30
189.775,2.3099507929999845,-0.9404296875,0.314453125,-0.006591796875,0.5190839694656488,0.48854961832061067,1.648854961832061,38228,-2,-5,-3.399244569737899,19579.103000038987,-0.0065699999999999995,False,,False,,,,,30
189.775,2.3119521769999665,-0.9404296875,0.314453125,-0.006591796875,0.5190839694656488,0.48854961832061067,1.648854961832061,38228,-2,-5,-3.399244569737899,19579.103000038987,-0.0065699999999999995,False,,False,,,,,30
189.78,2.313955987999975,-0.943603515625,0.31103515625,-0.008544921875,1.1603053435114503,0.2748091603053435,1.5572519083969465,38230,4,-4,-3.394300722081649,19579.1048278663,-0.005256,False,,False,,,,,30
189.78,2.3159556309999516,-0.943603515625,0.31103515625,-0.008544921875,1.1603053435114503,0.2748091603053435,1.5572519083969465,38230,4,-4,-3.394300722081649,19579.1048278663,-0.005256,False,,False,,,,,30
189.785,2.317960683000024,-0.947509765625,0.312744140625,-0.007568359375,2.2900763358778624,0.24427480916030533,1.282442748091603,38228,-1,-2,-3.399244569737899,19579.112959618218,-0.002628,False,,False,,,,,30
189.785,2.3199611779999714,-0.947509765625,0.312744140625,-0.007568359375,2.2900763358778624,0.24427480916030533,1.282442748091603,38228,-1,-2,-3.399244569737899,19579.112959618218,-0.002628,False,,False,,,,,30
189.785,2.321960173999969,-0.947509765625,0.312744140625,-0.007568359375,2.2900763358778624,0.24427480916030533,1.282442748091603,38228,-1,-2,-3.399244569737899,19579.112959618218,-0.002628,False,,False,,,,,30
189.79,2.323962020999943,-0.944091796875,0.304931640625,-0.003662109375,2.5038167938931295,-0.15267175572519084,0.9770992366412213,38229,-4,2,-3.396772645909774,19579.119089081018,0.002628,False,,False,,,,,30
189.79,2.3259633870000016,-0.944091796875,0.304931640625,-0.003662109375,2.5038167938931295,-0.15267175572519084,0.9770992366412213,38229,-4,2,-3.396772645909774,19579.119089081018,0.002628,False,,False,,,,,30
189.79500000000002,2.3279637159999993,-0.94775390625,0.3017578125,-0.001953125,1.7404580152671756,0.15267175572519084,1.0687022900763359,38227,-1,8,-3.401716493566024,19579.121662963684,0.010512,False,,False,,,,,30
189.79500000000002,2.32996548899996,-0.94775390625,0.3017578125,-0.001953125,1.7404580152671756,0.15267175572519084,1.0687022900763359,38227,-1,8,-3.401716493566024,19579.121662963684,0.010512,False,,False,,,,,30
189.79500000000002,2.3319670409999844,-0.94775390625,0.3017578125,-0.001953125,1.7404580152671756,0.15267175572519084,1.0687022900763359,38227,-1,8,-3.401716493566024,19579.121662963684,0.010512,False,,False,,,,,30
189.8,2.3339708510000037,-0.953125,0.30126953125,-0.00244140625,1.129770992366412,0.21374045801526717,0.7633587786259541,38228,-1,3,-3.399244569737899,19579.121222892365,0.003942,False,,False,,,,,30
189.8,2.3359723280000253,-0.953125,0.30126953125,-0.00244140625,1.129770992366412,0.21374045801526717,0.7633587786259541,38228,-1,3,-3.399244569737899,19579.121222892365,0.003942,False,,False,,,,,30
189.805,2.337971861000028,-0.948486328125,0.304931640625,-0.0029296875,1.2519083969465647,0.030534351145038167,0.8854961832061068,38228,2,-7,-3.399244569737899,19579.121846978007,-0.009198,False,,False,,,,,30
189.805,2.339971986000023,-0.948486328125,0.304931640625,-0.0029296875,1.2519083969465647,0.030534351145038167,0.8854961832061068,38228,2,-7,-3.399244569737899,19579.121846978007,-0.009198,False,,False,,,,,30
189.805,2.3419745190000185,-0.948486328125,0.304931640625,-0.0029296875,1.2519083969465647,0.030534351145038167,0.8854961832061068,38228,2,-7,-3.399244569737899,19579.121846978007,-0.009198,False,,False,,,,,30
189.81,2.3439775140000165,-0.94775390625,0.30712890625,-0.003662109375,1.3435114503816794,0.21374045801526717,0.7633587786259541,38228,3,-1,-3.399244569737899,19579.125143419933,-0.001314,False,,False,,,,,30
189.81,2.3459770649999427,-0.94775390625,0.30712890625,-0.003662109375,1.3435114503816794,0.21374045801526717,0.7633587786259541,38228,3,-1,-3.399244569737899,19579.125143419933,-0.001314,False,,False,,,,,30
189.815,2.3480099859999655,-0.947509765625,0.30615234375,-0.00390625,1.4045801526717556,0.061068702290076333,0.6412213740458015,38227,1,-1,-3.401716493566024,19579.127048346523,-0.001314,False,,False,,,,,30
189.815,2.3500082230000316,-0.947509765625,0.30615234375,-0.00390625,1.4045801526717556,0.061068702290076333,0.6412213740458015,38227,1,-1,-3.401716493566024,19579.127048346523,-0.001314,False,,False,,,,,30
189.815,2.3520124409999426,-0.947509765625,0.30615234375,-0.00390625,1.4045801526717556,0.061068702290076333,0.6412213740458015,38227,1,-1,-3.401716493566024,19579.127048346523,-0.001314,False,,False,,,,,30
189.82,2.354013344000009,-0.943115234375,0.30517578125,-0.00439453125,1.2519083969465647,-0.15267175572519084,0.6717557251908397,38228,-2,3,-3.399244569737899,19579.127760725856,0.003942,False,,False,,,,,30
189.82,2.356014060999996,-0.943115234375,0.30517578125,-0.00439453125,1.2519083969465647,-0.15267175572519084,0.6717557251908397,38228,-2,3,-3.399244569737899,19579.127760725856,0.003942,False,,False,,,,,30
189.82500000000002,2.3580176680000022,-0.94091796875,0.304443359375,-0.005126953125,1.1603053435114503,0.030534351145038167,0.5190839694656488,38227,-1,0,-3.401716493566024,19579.129254910236,0.0,False,,False,,,,,30
189.82500000000002,2.3600154040000234,-0.94091796875,0.304443359375,-0.005126953125,1.1603053435114503,0.030534351145038167,0.5190839694656488,38227,-1,0,-3.401716493566024,19579.129254910236,0.0,False,,False,,,,,30
189.82500000000002,2.3620199370000137,-0.94091796875,0.304443359375,-0.005126953125,1.1603053435114503,0.030534351145038167,0.5190839694656488,38227,-1,0,-3.401716493566024,19579.129254910236,0.0,False,,False,,,,,30
189.83,2.3640213209999956,-0.944091796875,0.3076171875,-0.0068359375,1.2213740458015268,-0.24427480916030533,0.4580152671755725,38228,-2,2,-3.399244569737899,19579.131381961215,0.002628,False,,False,,,,,30
189.83,2.366021743000033,-0.944091796875,0.3076171875,-0.0068359375,1.2213740458015268,-0.24427480916030533,0.4580152671755725,38228,-2,2,-3.399244569737899,19579.131381961215,0.002628,False,,False,,,,,30
189.835,2.368025923999994,-0.947998046875,0.304931640625,-0.00439453125,1.2213740458015268,-0.0916030534351145,0.48854961832061067,38228,-1,1,-3.399244569737899,19579.13579852705,0.001314,False,,False,,,,,30
189.835,2.3700258819999362,-0.947998046875,0.304931640625,-0.00439453125,1.2213740458015268,-0.0916030534351145,0.48854961832061067,38228,-1,1,-3.399244569737899,19579.13579852705,0.001314,False,,False,,,,,30
189.835,2.3720267479999393,-0.947998046875,0.304931640625,-0.00439453125,1.2213740458015268,-0.0916030534351145,0.48854961832061067,38228,-1,1,-3.399244569737899,19579.13579852705,0.001314,False,,False,,,,,30
189.84,2.3740296879999505,-0.94384765625,0.302734375,-0.005859375,0.9770992366412213,0.061068702290076333,0.4580152671755725,38227,1,-3,-3.401716493566024,19579.14027734737,-0.003942,False,,False,,,,,30
189.84,2.3760304989999668,-0.94384765625,0.302734375,-0.005859375,0.9770992366412213,0.061068702290076333,0.4580152671755725,38227,1,-3,-3.401716493566024,19579.14027734737,-0.003942,False,,False,,,,,30
189.845,2.378032587000007,-0.946533203125,0.3046875,-0.004638671875,0.9770992366412213,-0.030534351145038167,0.183206106870229,38228,2,-4,-3.399244569737899,19579.142952898394,-0.005256,False,,False,,,,,30
189.845,2.3800315449999516,-0.946533203125,0.3046875,-0.004638671875,0.9770992366412213,-0.030534351145038167,0.183206106870229,38228,2,-4,-3.399244569737899,19579.142952898394,-0.005256,False,,False,,,,,30
189.845,2.3820373930000187,-0.946533203125,0.3046875,-0.004638671875,0.9770992366412213,-0.030534351145038167,0.183206106870229,38228,2,-4,-3.399244569737899,19579.142952898394,-0.005256,False,,False,,,,,30
189.85,2.384037870000043,-0.94775390625,0.302001953125,-0.003173828125,1.0076335877862594,0.21374045801526717,0.12213740458015267,38227,0,-7,-3.401716493566024,19579.145870529646,-0.009198,False,,False,,,,,30
189.85,2.3860380319999877,-0.94775390625,0.302001953125,-0.003173828125,1.0076335877862594,0.21374045801526717,0.12213740458015267,38227,0,-7,-3.401716493566024,19579.145870529646,-0.009198,False,,False,,,,,30
189.855,2.3880408979999856,-0.94775390625,0.304931640625,-0.0048828125,0.8244274809160305,0.183206106870229,0.0916030534351145,38227,-5,-2,-3.401716493566024,19579.14715805493,-0.002628,False,,False,,,,,30
189.855,2.3900416530000257,-0.94775390625,0.304931640625,-0.0048828125,0.8244274809160305,0.183206106870229,0.0916030534351145,38227,-5,-2,-3.401716493566024,19579.14715805493,-0.002628,False,,False,,,,,30
189.855,2.392043056000034,-0.94775390625,0.304931640625,-0.0048828125,0.8244274809160305,0.183206106870229,0.0916030534351145,38227,-5,-2,-3.401716493566024,19579.14715805493,-0.002628,False,,False,,,,,30
189.86,2.3940469589999793,-0.945068359375,0.305908203125,-0.00732421875,0.8854961832061068,0.2748091603053435,-0.12213740458015267,38226,-1,6,-3.404188417394149,19579.14527172882,0.007884,False,,False,,,,,30
189.86,2.3960468059999585,-0.945068359375,0.305908203125,-0.00732421875,0.8854961832061068,0.2748091603053435,-0.12213740458015267,38226,-1,6,-3.404188417394149,19579.14527172882,0.007884,False,,False,,,,,30
189.865,2.39804948699998,-0.94775390625,0.3046875,-0.0048828125,0.8854961832061068,0.21374045801526717,-0.15267175572519084,38227,-4,2,-3.401716493566024,19579.142546143008,0.002628,False,,False,,,,,30
189.865,2.400048000999959,-0.94775390625,0.3046875,-0.0048828125,0.8854961832061068,0.21374045801526717,-0.15267175572519084,38227,-4,2,-3.401716493566024,19579.142546143008,0.002628,False,,False,,,,,30
189.865,2.4020517379999546,-0.94775390625,0.3046875,-0.0048828125,0.8854961832061068,0.21374045801526717,-0.15267175572519084,38227,-4,2,-3.401716493566024,19579.142546143008,0.002628,False,,False,,,,,30
189.87,2.40405582599999,-0.947998046875,0.306640625,-0.00390625,0.916030534351145,0.33587786259541985,-0.21374045801526717,38227,1,1,-3.401716493566024,19579.142738437928,0.001314,False,,False,,,,,30
189.87,2.406054469999958,-0.947998046875,0.306640625,-0.00390625,0.916030534351145,0.33587786259541985,-0.21374045801526717,38227,1,1,-3.401716493566024,19579.142738437928,0.001314,False,,False,,,,,30
189.875,2.4080564470000354,-0.94921875,0.306640625,-0.00341796875,0.7938931297709924,0.3969465648854962,-0.183206106870229,38227,0,2,-3.401716493566024,19579.14537074373,0.002628,False,,False,,,,,30
189.875,2.4100567010000304,-0.94921875,0.306640625,-0.00341796875,0.7938931297709924,0.3969465648854962,-0.183206106870229,38227,0,2,-3.401716493566024,19579.14537074373,0.002628,False,,False,,,,,30
189.875,2.412057122999954,-0.94921875,0.306640625,-0.00341796875,0.7938931297709924,0.3969465648854962,-0.183206106870229,38227,0,2,-3.401716493566024,19579.14537074373,0.002628,False,,False,,,,,30
189.88,2.4140620629999603,-0.9462890625,0.305419921875,-0.00244140625,0.732824427480916,0.3053435114503817,-0.183206106870229,38227,2,0,-3.401716493566024,19579.148217144208,0.0,False,,False,,,,,30
189.88,2.4160622069999818,-0.9462890625,0.305419921875,-0.00244140625,0.732824427480916,0.3053435114503817,-0.183206106870229,38227,2,0,-3.401716493566024,19579.148217144208,0.0,False,,False,,,,,30
189.885,2.4180674059999774,-0.9482421875,0.3037109375,-0.005615234375,0.549618320610687,0.3969465648854962,-0.33587786259541985,38228,0,0,-3.399244569737899,19579.152992049967,0.0,False,,False,,,,,30
189.885,2.4200634200000195,-0.9482421875,0.3037109375,-0.005615234375,0.549618320610687,0.3969465648854962,-0.33587786259541985,38228,0,0,-3.399244569737899,19579.152992049967,0.0,False,,False,,,,,30
189.885,2.4220661189999646,-0.9482421875,0.3037109375,-0.005615234375,0.549618320610687,0.3969465648854962,-0.33587786259541985,38228,0,0,-3.399244569737899,19579.152992049967,0.0,False,,False,,,,,30
189.89000000000001,2.4240687449999996,-0.94775390625,0.307861328125,-0.00439453125,0.6106870229007634,0.3969465648854962,-0.3969465648854962,38226,-4,-1,-3.404188417394149,19579.157521787638,-0.001314,False,,False,,,,,30
189.89000000000001,2.426070629000037,-0.94775390625,0.307861328125,-0.00439453125,0.6106870229007634,0.3969465648854962,-0.3969465648854962,38226,-4,-1,-3.404188417394149,19579.157521787638,-0.001314,False,,False,,,,,30
189.895,2.428072291000035,-0.94921875,0.302978515625,-0.005126953125,0.549618320610687,0.48854961832061067,-0.21374045801526717,38227,-2,-3,-3.401716493566024,19579.158199645288,-0.003942,False,,False,,,,,30
189.895,2.430072343000006,-0.94921875,0.302978515625,-0.005126953125,0.549618320610687,0.48854961832061067,-0.21374045801526717,38227,-2,-3,-3.401716493566024,19579.158199645288,-0.003942,False,,False,,,,,30
189.895,2.4320732830000225,-0.94921875,0.302978515625,-0.005126953125,0.549618320610687,0.48854961832061067,-0.21374045801526717,38227,-2,-3,-3.401716493566024,19579.158199645288,-0.003942,False,,False,,,,,30
189.9,2.4340765560000364,-0.945556640625,0.308349609375,-0.004638671875,0.549618320610687,0.33587786259541985,-0.33587786259541985,38227,-1,-6,-3.401716493566024,19579.159223968458,-0.007884,False,,False,,,,,30
189.9,2.4360767919999944,-0.945556640625,0.308349609375,-0.004638671875,0.549618320610687,0.33587786259541985,-0.33587786259541985,38227,-1,-6,-3.401716493566024,19579.159223968458,-0.007884,False,,False,,,,,30
189.905,2.4380793619999395,-0.94580078125,0.30615234375,-0.00390625,0.42748091603053434,0.4580152671755725,-0.5190839694656488,38227,6,-10,-3.401716493566024,19579.162314011675,-0.013139999999999999,False,,False,,,,,30
189.905,2.440078950000043,-0.94580078125,0.30615234375,-0.00390625,0.42748091603053434,0.4580152671755725,-0.5190839694656488,38227,6,-10,-3.401716493566024,19579.162314011675,-0.013139999999999999,False,,False,,,,,30
189.905,2.442083241999967,-0.94580078125,0.30615234375,-0.00390625,0.42748091603053434,0.4580152671755725,-0.5190839694656488,38227,6,-10,-3.401716493566024,19579.162314011675,-0.013139999999999999,False,,False,,,,,30
189.91,2.444082885999933,-0.94677734375,0.303955078125,-0.007080078125,0.4580152671755725,0.7633587786259541,-0.4580152671755725,38226,-4,-4,-3.404188417394149,19579.16350766487,-0.005256,False,,False,,,,,30
189.91,2.446083196000018,-0.94677734375,0.303955078125,-0.007080078125,0.4580152671755725,0.7633587786259541,-0.4580152671755725,38226,-4,-4,-3.404188417394149,19579.16350766487,-0.005256,False,,False,,,,,30
189.915,2.4482096529999353,-0.94775390625,0.306640625,-0.007080078125,0.3053435114503817,0.6106870229007634,-0.6717557251908397,38225,0,-2,-3.406660341222274,19579.15951539468,-0.002628,False,,False,,,,,30
189.915,2.4502056489999404,-0.94775390625,0.306640625,-0.007080078125,0.3053435114503817,0.6106870229007634,-0.6717557251908397,38225,0,-2,-3.406660341222274,19579.15951539468,-0.002628,False,,False,,,,,30
189.915,2.4522076810000044,-0.94775390625,0.306640625,-0.007080078125,0.3053435114503817,0.6106870229007634,-0.6717557251908397,38225,0,-2,-3.406660341222274,19579.15951539468,-0.002628,False,,False,,,,,30
189.92000000000002,2.4542110659999707,-0.947021484375,0.304931640625,-0.009765625,0.3969465648854962,0.7633587786259541,-0.6106870229007634,38226,-9,-3,-3.404188417394149,19579.15302990327,-0.003942,False,,False,,,,,30
189.92000000000002,2.456209895000029,-0.947021484375,0.304931640625,-0.009765625,0.3969465648854962,0.7633587786259541,-0.6106870229007634,38226,-9,-3,-3.404188417394149,19579.15302990327,-0.003942,False,,False,,,,,30
189.925,2.45821290899994,-0.948486328125,0.3076171875,-0.006591796875,0.4580152671755725,0.6717557251908397,-0.8244274809160305,38227,1,-5,-3.401716493566024,19579.151713102612,-0.0065699999999999995,False,,False,,,,,30
189.925,2.4602125709999427,-0.948486328125,0.3076171875,-0.006591796875,0.4580152671755725,0.6717557251908397,-0.8244274809160305,38227,1,-5,-3.401716493566024,19579.151713102612,-0.0065699999999999995,False,,False,,,,,30
189.925,2.462219289000018,-0.948486328125,0.3076171875,-0.006591796875,0.4580152671755725,0.6717557251908397,-0.8244274809160305,38227,1,-5,-3.401716493566024,19579.151713102612,-0.0065699999999999995,False,,False,,,,,30
189.93,2.4642185249999784,-0.947021484375,0.3095703125,-0.0048828125,0.366412213740458,0.7938931297709924,-0.6106870229007634,38227,2,-1,-3.401716493566024,19579.156533015714,-0.001314,False,,False,,,,,30
189.93,2.4662181139999575,-0.947021484375,0.3095703125,-0.0048828125,0.366412213740458,0.7938931297709924,-0.6106870229007634,38227,2,-1,-3.401716493566024,19579.156533015714,-0.001314,False,,False,,,,,30
189.935,2.4684251989999666,-0.955078125,0.310546875,-0.006591796875,0.549618320610687,0.7938931297709924,-0.8549618320610687,38227,5,-4,-3.401716493566024,19579.162839640278,-0.005256,False,,False,,,,,30
189.935,2.470425916999943,-0.955078125,0.310546875,-0.006591796875,0.549618320610687,0.7938931297709924,-0.8549618320610687,38227,5,-4,-3.401716493566024,19579.162839640278,-0.005256,False,,False,,,,,30
189.935,2.472426541999994,-0.955078125,0.310546875,-0.006591796875,0.549618320610687,0.7938931297709924,-0.8549618320610687,38227,5,-4,-3.401716493566024,19579.162839640278,-0.005256,False,,False,,,,,30
189.94,2.474433981999937,-0.955078125,0.314697265625,-0.0078125,0.6106870229007634,0.8854961832061068,-0.8549618320610687,38227,1,-5,-3.401716493566024,19579.168509045892,-0.0065699999999999995,False,,False,,,,,30
189.94,2.476430682,-0.955078125,0.314697265625,-0.0078125,0.6106870229007634,0.8854961832061068,-0.8549618320610687,38227,1,-5,-3.401716493566024,19579.168509045892,-0.0065699999999999995,False,,False,,,,,30
189.945,2.4784341219999533,-0.951416015625,0.313720703125,-0.006103515625,0.549618320610687,1.1603053435114503,-0.8854961832061068,38226,0,2,-3.404188417394149,19579.171772348196,0.002628,False,,False,,,,,30
189.945,2.4804331909999746,-0.951416015625,0.313720703125,-0.006103515625,0.549618320610687,1.1603053435114503,-0.8854961832061068,38226,0,2,-3.404188417394149,19579.171772348196,0.002628,False,,False,,,,,30
189.945,2.482444075999979,-0.951416015625,0.313720703125,-0.006103515625,0.549618320610687,1.1603053435114503,-0.8854961832061068,38226,0,2,-3.404188417394149,19579.171772348196,0.002628,False,,False,,,,,30
189.95000000000002,2.4844392569999627,-0.952880859375,0.31298828125,-0.004150390625,0.42748091603053434,0.9465648854961831,-0.8244274809160305,38226,1,1,-3.404188417394149,19579.17118352582,0.001314,False,,False,,,,,30
189.95000000000002,2.486437511999952,-0.952880859375,0.31298828125,-0.004150390625,0.42748091603053434,0.9465648854961831,-0.8244274809160305,38226,1,1,-3.404188417394149,19579.17118352582,0.001314,False,,False,,,,,30
189.955,2.488441228999932,-0.9521484375,0.31689453125,-0.005615234375,0.6717557251908397,1.1908396946564885,-0.5801526717557252,38227,1,2,-3.401716493566024,19579.170959313393,0.002628,False,,False,,,,,30
189.955,2.4904403550000325,-0.9521484375,0.31689453125,-0.005615234375,0.6717557251908397,1.1908396946564885,-0.5801526717557252,38227,1,2,-3.401716493566024,19579.170959313393,0.002628,False,,False,,,,,30
189.955,2.4924416279999377,-0.9521484375,0.31689453125,-0.005615234375,0.6717557251908397,1.1908396946564885,-0.5801526717557252,38227,1,2,-3.401716493566024,19579.170959313393,0.002628,False,,False,,,,,30
189.96,2.4944454010000072,-0.948974609375,0.320068359375,-0.005126953125,0.6412213740458015,1.1603053435114503,-0.7022900763358778,38226,-3,0,-3.404188417394149,19579.17283409839,0.0,False,,False,,,,,30
189.96,2.4964442860000418,-0.948974609375,0.320068359375,-0.005126953125,0.6412213740458015,1.1603053435114503,-0.7022900763358778,38226,-3,0,-3.404188417394149,19579.17283409839,0.0,False,,False,,,,,30
189.965,2.498447521999992,-0.94873046875,0.3212890625,-0.00537109375,0.7938931297709924,1.3435114503816794,-0.7938931297709924,38225,-3,1,-3.406660341222274,19579.171067453924,0.001314,False,,False,,,,,30
189.965,2.5004564810000147,-0.94873046875,0.3212890625,-0.00537109375,0.7938931297709924,1.3435114503816794,-0.7938931297709924,38225,-3,1,-3.406660341222274,19579.171067453924,0.001314,False,,False,,,,,30
189.965,2.5024496060000274,-0.94873046875,0.3212890625,-0.00537109375,0.7938931297709924,1.3435114503816794,-0.7938931297709924,38225,-3,1,-3.406660341222274,19579.171067453924,0.001314,False,,False,,,,,30
189.97,2.5045159339999827,-0.948974609375,0.321044921875,-0.00732421875,0.9770992366412213,1.4351145038167938,-0.8244274809160305,38226,4,-1,-3.404188417394149,19579.166277864424,-0.001314,False,,False,,,,,30
189.97,2.506514855999967,-0.948974609375,0.321044921875,-0.00732421875,0.9770992366412213,1.4351145038167938,-0.8244274809160305,38226,4,-1,-3.404188417394149,19579.166277864424,-0.001314,False,,False,,,,,30
189.975,2.5085228140000027,-0.951171875,0.3251953125,-0.00390625,0.9770992366412213,1.4045801526717556,-0.732824427480916,38226,3,0,-3.404188417394149,19579.164398418776,0.0,False,,False,,,,,30
189.975,2.5105409389999522,-0.951171875,0.3251953125,-0.00390625,0.9770992366412213,1.4045801526717556,-0.732824427480916,38226,3,0,-3.404188417394149,19579.164398418776,0.0,False,,False,,,,,30
189.975,2.512534749999986,-0.951171875,0.3251953125,-0.00390625,0.9770992366412213,1.4045801526717556,-0.732824427480916,38226,3,0,-3.404188417394149,19579.164398418776,0.0,False,,False,,,,,30
189.98,2.514535171000034,-0.94873046875,0.330078125,-0.006103515625,1.282442748091603,1.5572519083969465,-0.6717557251908397,38226,-1,2,-3.404188417394149,19579.16498251918,0.002628,False,,False,,,,,30
189.98,2.516535777999934,-0.94873046875,0.330078125,-0.006103515625,1.282442748091603,1.5572519083969465,-0.6717557251908397,38226,-1,2,-3.404188417394149,19579.16498251918,0.002628,False,,False,,,,,30
189.985,2.518540383999948,-0.951171875,0.326904296875,-0.00830078125,1.4961832061068703,1.5572519083969465,-0.7938931297709924,38226,1,3,-3.404188417394149,19579.16583008887,0.003942,False,,False,,,,,30
189.985,2.5205411949999643,-0.951171875,0.326904296875,-0.00830078125,1.4961832061068703,1.5572519083969465,-0.7938931297709924,38226,1,3,-3.404188417394149,19579.16583008887,0.003942,False,,False,,,,,30
189.985,2.5225437279999596,-0.951171875,0.326904296875,-0.00830078125,1.4961832061068703,1.5572519083969465,-0.7938931297709924,38226,1,3,-3.404188417394149,19579.16583008887,0.003942,False,,False,,,,,30
189.99,2.524544407999997,-0.950439453125,0.33056640625,-0.007568359375,1.5877862595419847,1.5267175572519083,-0.7633587786259541,38226,-8,3,-3.404188417394149,19579.166885951294,0.003942,False,,False,,,,,30
189.99,2.52654371899996,-0.950439453125,0.33056640625,-0.007568359375,1.5877862595419847,1.5267175572519083,-0.7633587786259541,38226,-8,3,-3.404188417394149,19579.166885951294,0.003942,False,,False,,,,,30
189.995,2.5285470479999503,-0.9521484375,0.3310546875,-0.006591796875,1.7404580152671756,1.648854961832061,-0.7938931297709924,38226,-7,3,-3.404188417394149,19579.168100896983,0.003942,False,,False,,,,,30
189.995,2.530547673000001,-0.9521484375,0.3310546875,-0.006591796875,1.7404580152671756,1.648854961832061,-0.7938931297709924,38226,-7,3,-3.404188417394149,19579.168100896983,0.003942,False,,False,,,,,30
189.995,2.532550260999983,-0.9521484375,0.3310546875,-0.006591796875,1.7404580152671756,1.648854961832061,-0.7938931297709924,38226,-7,3,-3.404188417394149,19579.168100896983,0.003942,False,,False,,,,,30
190.0,2.5345503309999913,-0.94921875,0.33203125,-0.00634765625,2.0763358778625953,1.8625954198473282,-0.8854961832061068,38225,-1,-4,-3.406660341222274,19579.167640919917,-0.005256,False,,False,,,,,30
190.0,2.536734545999934,-0.94921875,0.33203125,-0.00634765625,2.0763358778625953,1.8625954198473282,-0.8854961832061068,38225,-1,-4,-3.406660341222274,19579.167640919917,-0.005256,False,,False,,,,,30
190.005,2.538734653000006,-0.950927734375,0.332763671875,-0.008544921875,2.381679389312977,1.8931297709923662,-0.8549618320610687,38226,0,-11,-3.404188417394149,19579.165785391815,-0.014454,False,,False,,,,,30
190.005,2.540737629999967,-0.950927734375,0.332763671875,-0.008544921875,2.381679389312977,1.8931297709923662,-0.8549618320610687,38226,0,-11,-3.404188417394149,19579.165785391815,-0.014454,False,,False,,,,,30
190.005,2.5427381629999672,-0.950927734375,0.332763671875,-0.008544921875,2.381679389312977,1.8931297709923662,-0.8549618320610687,38226,0,-11,-3.404188417394149,19579.165785391815,-0.014454,False,,False,,,,,30
190.01,2.544739824999965,-0.95068359375,0.331787109375,-0.008056640625,2.6259541984732824,1.8931297709923662,-0.732824427480916,38226,0,-8,-3.404188417394149,19579.16636942285,-0.010512,False,,False,,,,,30
190.01,2.5467395240000315,-0.95068359375,0.331787109375,-0.008056640625,2.6259541984732824,1.8931297709923662,-0.732824427480916,38226,0,-8,-3.404188417394149,19579.16636942285,-0.010512,False,,False,,,,,30
190.01500000000001,2.5487404269999843,-0.948486328125,0.3349609375,-0.005615234375,2.6259541984732824,1.8625954198473282,-0.916030534351145,38227,5,-4,-3.401716493566024,19579.170777851097,-0.005256,False,,False,,,,,30
190.01500000000001,2.5507412749999503,-0.948486328125,0.3349609375,-0.005615234375,2.6259541984732824,1.8625954198473282,-0.916030534351145,38227,5,-4,-3.401716493566024,19579.170777851097,-0.005256,False,,False,,,,,30
190.01500000000001,2.552742715000022,-0.948486328125,0.3349609375,-0.005615234375,2.6259541984732824,1.8625954198473282,-0.916030534351145,38227,5,-4,-3.401716493566024,19579.170777851097,-0.005256,False,,False,,,,,30
190.02,2.5547457840000334,-0.949462890625,0.336181640625,-0.007080078125,3.2671755725190836,2.015267175572519,-0.7938931297709924,38226,-7,4,-3.404188417394149,19579.17653362626,0.005256,False,,False,,,,,30
190.02,2.5567457800000284,-0.949462890625,0.336181640625,-0.007080078125,3.2671755725190836,2.015267175572519,-0.7938931297709924,38226,-7,4,-3.404188417394149,19579.17653362626,0.005256,False,,False,,,,,30
190.025,2.5587493309999445,-0.94580078125,0.334716796875,-0.00634765625,3.480916030534351,1.83206106870229,-0.7938931297709924,38227,-1,0,-3.401716493566024,19579.181543489434,0.0,False,,False,,,,,30
190.025,2.560749085999987,-0.94580078125,0.334716796875,-0.00634765625,3.480916030534351,1.83206106870229,-0.7938931297709924,38227,-1,0,-3.401716493566024,19579.181543489434,0.0,False,,False,,,,,30
190.025,2.5627576929999805,-0.94580078125,0.334716796875,-0.00634765625,3.480916030534351,1.83206106870229,-0.7938931297709924,38227,-1,0,-3.401716493566024,19579.181543489434,0.0,False,,False,,,,,30
190.03,2.5647577619999993,-0.946044921875,0.339599609375,-0.0087890625,3.6946564885496183,1.8015267175572518,-0.916030534351145,38226,0,-9,-3.404188417394149,19579.185856312666,-0.011826,False,,False,,,,,30
190.03,2.566759239000021,-0.946044921875,0.339599609375,-0.0087890625,3.6946564885496183,1.8015267175572518,-0.916030534351145,38226,0,-9,-3.404188417394149,19579.185856312666,-0.011826,False,,False,,,,,30
190.035,2.56876140199995,-0.9482421875,0.341064453125,-0.005859375,4.061068702290076,1.9541984732824427,-0.7938931297709924,38227,3,-5,-3.401716493566024,19579.189523108158,-0.0065699999999999995,False,,False,,,,,30
190.035,2.570760396999958,-0.9482421875,0.341064453125,-0.005859375,4.061068702290076,1.9541984732824427,-0.7938931297709924,38227,3,-5,-3.401716493566024,19579.189523108158,-0.0065699999999999995,False,,False,,,,,30
190.035,2.5727635040000223,-0.9482421875,0.341064453125,-0.005859375,4.061068702290076,1.9541984732824427,-0.7938931297709924,38227,3,-5,-3.401716493566024,19579.189523108158,-0.0065699999999999995,False,,False,,,,,30
190.04,2.5747662769999806,-0.946044921875,0.3427734375,-0.008056640625,4.519083969465648,2.1068702290076335,-0.732824427480916,38227,3,0,-3.401716493566024,19579.194386445386,0.0,False,,False,,,,,30
190.04,2.5767664769999783,-0.946044921875,0.3427734375,-0.008056640625,4.519083969465648,2.1068702290076335,-0.732824427480916,38227,3,0,-3.401716493566024,19579.194386445386,0.0,False,,False,,,,,30
190.04500000000002,2.57877191700004,-0.946044921875,0.341552734375,-0.00390625,4.9465648854961835,2.045801526717557,-0.7938931297709924,38225,0,-2,-3.406660341222274,19579.196600042833,-0.002628,False,,False,,,,,30
190.04500000000002,2.580768078999995,-0.946044921875,0.341552734375,-0.00390625,4.9465648854961835,2.045801526717557,-0.7938931297709924,38225,0,-2,-3.406660341222274,19579.196600042833,-0.002628,False,,False,,,,,30
190.04500000000002,2.5827718340000274,-0.946044921875,0.341552734375,-0.00390625,4.9465648854961835,2.045801526717557,-0.7938931297709924,38225,0,-2,-3.406660341222274,19579.196600042833,-0.002628,False,,False,,,,,30
190.05,2.584770959000025,-0.941162109375,0.341552734375,-0.0048828125,5.1603053435114505,1.9541984732824427,-0.7938931297709924,38227,-1,-1,-3.401716493566024,19579.194772754403,-0.001314,False,,False,,,,,29
190.05,2.5867721580000307,-0.941162109375,0.341552734375,-0.0048828125,5.1603053435114505,1.9541984732824427,-0.7938931297709924,38227,-1,-1,-3.401716493566024,19579.194772754403,-0.001314,False,,False,,,,,29
190.055,2.588777950000008,-0.94140625,0.343994140625,-0.0078125,5.465648854961832,1.9236641221374045,-0.732824427480916,38226,0,-1,-3.404188417394149,19579.194960494795,-0.001314,False,,False,,,,,29
190.055,2.5907770569999684,-0.94140625,0.343994140625,-0.0078125,5.465648854961832,1.9236641221374045,-0.732824427480916,38226,0,-1,-3.404188417394149,19579.194960494795,-0.001314,False,,False,,,,,29
190.055,2.592778349000014,-0.94140625,0.343994140625,-0.0078125,5.465648854961832,1.9236641221374045,-0.732824427480916,38226,0,-1,-3.404188417394149,19579.194960494795,-0.001314,False,,False,,,,,29
190.06,2.5947814740000013,-0.9365234375,0.346923828125,-0.005615234375,6.015267175572519,2.045801526717557,-0.7633587786259541,38227,1,-2,-3.401716493566024,19579.196832461,-0.002628,False,,False,,,,,29
190.06,2.596781877000012,-0.9365234375,0.346923828125,-0.005615234375,6.015267175572519,2.045801526717557,-0.7633587786259541,38227,1,-2,-3.401716493566024,19579.196832461,-0.002628,False,,False,,,,,29
190.065,2.5987878539999656,-0.933349609375,0.345947265625,-0.005615234375,6.351145038167939,1.7709923664122136,-0.7938931297709924,38226,-4,1,-3.404188417394149,19579.19829680732,0.001314,False,,False,,,,,29
190.065,2.6007838499999707,-0.933349609375,0.345947265625,-0.005615234375,6.351145038167939,1.7709923664122136,-0.7938931297709924,38226,-4,1,-3.404188417394149,19579.19829680732,0.001314,False,,False,,,,,29
190.065,2.6027846599999975,-0.933349609375,0.345947265625,-0.005615234375,6.351145038167939,1.7709923664122136,-0.7938931297709924,38226,-4,1,-3.404188417394149,19579.19829680732,0.001314,False,,False,,,,,29
190.07,2.6047871370000166,-0.93115234375,0.3505859375,-0.0068359375,6.778625954198473,1.9236641221374045,-0.916030534351145,38225,-4,0,-3.406660341222274,19579.195817679833,0.0,False,,False,,,,,30
190.07,2.6067926880000414,-0.93115234375,0.3505859375,-0.0068359375,6.778625954198473,1.9236641221374045,-0.916030534351145,38225,-4,0,-3.406660341222274,19579.195817679833,0.0,False,,False,,,,,30
190.07500000000002,2.6087933500000418,-0.931884765625,0.347900390625,-0.005615234375,6.778625954198473,1.618320610687023,-0.8244274809160305,38227,0,-2,-3.401716493566024,19579.19186356664,-0.002628,False,,False,,,,,30
190.07500000000002,2.610791402000018,-0.931884765625,0.347900390625,-0.005615234375,6.778625954198473,1.618320610687023,-0.8244274809160305,38227,0,-2,-3.401716493566024,19579.19186356664,-0.002628,False,,False,,,,,30
190.07500000000002,2.6127970080000296,-0.931884765625,0.347900390625,-0.005615234375,6.778625954198473,1.618320610687023,-0.8244274809160305,38227,0,-2,-3.401716493566024,19579.19186356664,-0.002628,False,,False,,,,,30
190.08,2.614798671000017,-0.92724609375,0.3486328125,-0.008544921875,7.541984732824427,1.4045801526717556,-1.0687022900763359,38226,-4,-1,-3.404188417394149,19579.19210341673,-0.001314,False,,False,,,,,30
190.08,2.6167994070000304,-0.92724609375,0.3486328125,-0.008544921875,7.541984732824427,1.4045801526717556,-1.0687022900763359,38226,-4,-1,-3.404188417394149,19579.19210341673,-0.001314,False,,False,,,,,30
190.085,2.61880303199996,-0.92578125,0.345458984375,-0.0087890625,7.938931297709924,1.2213740458015268,-0.8854961832061068,38226,-2,-2,-3.404188417394149,19579.19226989336,-0.002628,False,,False,,,,,30
190.085,2.6208046939999576,-0.92578125,0.345458984375,-0.0087890625,7.938931297709924,1.2213740458015268,-0.8854961832061068,38226,-2,-2,-3.404188417394149,19579.19226989336,-0.002628,False,,False,,,,,30
190.085,2.6228032640000265,-0.92578125,0.345458984375,-0.0087890625,7.938931297709924,1.2213740458015268,-0.8854961832061068,38226,-2,-2,-3.404188417394149,19579.19226989336,-0.002628,False,,False,,,,,30
190.09,2.624810092999951,-0.923095703125,0.3486328125,-0.00634765625,8.213740458015266,1.0381679389312977,-1.0381679389312977,38227,3,0,-3.401716493566024,19579.19237253177,0.0,False,,False,,,,,30
190.09,2.6268135699999675,-0.923095703125,0.3486328125,-0.00634765625,8.213740458015266,1.0381679389312977,-1.0381679389312977,38227,3,0,-3.401716493566024,19579.19237253177,0.0,False,,False,,,,,30
190.095,2.628815083999939,-0.92138671875,0.342041015625,-0.003662109375,8.549618320610687,0.7022900763358778,-1.0076335877862594,38225,-1,3,-3.406660341222274,19579.1924202391,0.003942,False,,False,,,,,30
190.095,2.630817042999979,-0.92138671875,0.342041015625,-0.003662109375,8.549618320610687,0.7022900763358778,-1.0076335877862594,38225,-1,3,-3.406660341222274,19579.1924202391,0.003942,False,,False,,,,,30
190.095,2.6328181119999954,-0.92138671875,0.342041015625,-0.003662109375,8.549618320610687,0.7022900763358778,-1.0076335877862594,38225,-1,3,-3.406660341222274,19579.1924202391,0.003942,False,,False,,,,,30
190.1,2.634820422999951,-0.92041015625,0.344482421875,-0.00732421875,9.251908396946565,0.5190839694656488,-1.0687022900763359,38225,0,-2,-3.406660341222274,19579.187049755514,-0.002628,False,,False,,,,,30
190.1,2.636820733000036,-0.92041015625,0.344482421875,-0.00732421875,9.251908396946565,0.5190839694656488,-1.0687022900763359,38225,0,-2,-3.406660341222274,19579.187049755514,-0.002628,False,,False,,,,,30
190.105,2.638825431999976,-0.92236328125,0.341064453125,-0.006591796875,9.435114503816793,0.3969465648854962,-1.0076335877862594,38227,0,0,-3.401716493566024,19579.182592575133,0.0,False,,False,,,,,30
190.105,2.6408233349999364,-0.92236328125,0.341064453125,-0.006591796875,9.435114503816793,0.3969465648854962,-1.0076335877862594,38227,0,0,-3.401716493566024,19579.182592575133,0.0,False,,False,,,,,30
190.105,2.6428251270000374,-0.92236328125,0.341064453125,-0.006591796875,9.435114503816793,0.3969465648854962,-1.0076335877862594,38227,0,0,-3.401716493566024,19579.182592575133,0.0,False,,False,,,,,30
190.11,2.644825677999961,-0.9208984375,0.344482421875,-0.005126953125,9.679389312977099,0.12213740458015267,-1.099236641221374,38225,-3,2,-3.406660341222274,19579.182545573327,0.002628,False,,False,,,,,30
190.11,2.6468267479999668,-0.9208984375,0.344482421875,-0.005126953125,9.679389312977099,0.12213740458015267,-1.099236641221374,38225,-3,2,-3.406660341222274,19579.182545573327,0.002628,False,,False,,,,,30
190.115,2.6488321319999386,-0.922607421875,0.343505859375,-0.008544921875,10.015267175572518,-0.15267175572519084,-0.9465648854961831,38226,-1,-1,-3.404188417394149,19579.1808198601,-0.001314,False,,False,,,,,30
190.115,2.6508304239999916,-0.922607421875,0.343505859375,-0.008544921875,10.015267175572518,-0.15267175572519084,-0.9465648854961831,38226,-1,-1,-3.404188417394149,19579.1808198601,-0.001314,False,,False,,,,,30
190.115,2.6528329010000107,-0.922607421875,0.343505859375,-0.008544921875,10.015267175572518,-0.15267175572519084,-0.9465648854961831,38226,-1,-1,-3.404188417394149,19579.1808198601,-0.001314,False,,False,,,,,30
190.12,2.6548364340000035,-0.927978515625,0.343505859375,-0.00927734375,10.595419847328245,-0.21374045801526717,-1.0687022900763359,38225,0,-2,-3.406660341222274,19579.17771376081,-0.002628,False,,False,,,,,30
190.12,2.6568337449999717,-0.927978515625,0.343505859375,-0.00927734375,10.595419847328245,-0.21374045801526717,-1.0687022900763359,38225,0,-2,-3.406660341222274,19579.17771376081,-0.002628,False,,False,,,,,30
190.125,2.658837833000007,-0.923583984375,0.341064453125,-0.008544921875,10.961832061068701,-0.42748091603053434,-1.0687022900763359,38225,2,-3,-3.406660341222274,19579.173497025247,-0.003942,False,,False,,,,,30
190.125,2.660836236000023,-0.923583984375,0.341064453125,-0.008544921875,10.961832061068701,-0.42748091603053434,-1.0687022900763359,38225,2,-3,-3.406660341222274,19579.173497025247,-0.003942,False,,False,,,,,30
190.125,2.6628409159999364,-0.923583984375,0.341064453125,-0.008544921875,10.961832061068701,-0.42748091603053434,-1.0687022900763359,38225,2,-3,-3.406660341222274,19579.173497025247,-0.003942,False,,False,,,,,30
190.13,2.6648423010000215,-0.92822265625,0.33837890625,-0.010498046875,11.297709923664122,-0.549618320610687,-1.0687022900763359,38224,-2,-3,-3.409132265050399,19579.166621067896,-0.003942,False,,False,,,,,30
190.13,2.6668444629999613,-0.92822265625,0.33837890625,-0.010498046875,11.297709923664122,-0.549618320610687,-1.0687022900763359,38224,-2,-3,-3.409132265050399,19579.166621067896,-0.003942,False,,False,,,,,30
190.135,2.668856124999934,-0.93115234375,0.3388671875,-0.01123046875,11.358778625954198,-0.549618320610687,-0.916030534351145,38224,2,1,-3.409132265050399,19579.15761846897,0.001314,False,,False,,,,,30
190.14000000000001,2.6775374329999977,-0.933837890625,0.34228515625,-0.009521484375,11.755725190839694,-0.48854961832061067,-0.916030534351145,38222,-8,-1,-3.414076112706649,19579.145175398357,-0.001314,False,,False,,,,,30
190.145,2.679546039999991,-0.932861328125,0.336669921875,-0.010498046875,12.091603053435113,-0.42748091603053434,-0.8854961832061068,38222,-3,0,-3.414076112706649,19579.12824178276,0.0,False,,False,,,,,30
190.145,2.681542054000033,-0.932861328125,0.336669921875,-0.010498046875,12.091603053435113,-0.42748091603053434,-0.8854961832061068,38222,-3,0,-3.414076112706649,19579.12824178276,0.0,False,,False,,,,,30
190.15,2.6835527160000083,-0.93603515625,0.342529296875,-0.0107421875,12.183206106870228,-0.366412213740458,-1.0076335877862594,38222,0,0,-3.414076112706649,19579.111375086686,0.0,False,,False,,,,,30
190.15,2.6855475639999895,-0.93603515625,0.342529296875,-0.0107421875,12.183206106870228,-0.366412213740458,-1.0076335877862594,38222,0,0,-3.414076112706649,19579.111375086686,0.0,False,,False,,,,,30
190.15,2.6875532450000037,-0.93603515625,0.342529296875,-0.0107421875,12.183206106870228,-0.366412213740458,-1.0076335877862594,38222,0,0,-3.414076112706649,19579.111375086686,0.0,False,,False,,,,,30
190.155,2.689555036999991,-0.937255859375,0.33984375,-0.008056640625,12.396946564885496,-0.42748091603053434,-0.9465648854961831,38221,0,0,-3.416548036534774,19579.096599262186,0.0,False,,False,,,,,30
190.155,2.6915685320000193,-0.937255859375,0.33984375,-0.008056640625,12.396946564885496,-0.42748091603053434,-0.9465648854961831,38221,0,0,-3.416548036534774,19579.096599262186,0.0,False,,False,,,,,30
190.16,2.6935721390000253,-0.938232421875,0.341552734375,-0.010498046875,12.793893129770991,-0.3969465648854962,-0.916030534351145,38219,-5,1,-3.421491884191024,19579.07841641782,0.001314,False,,False,,,,,30
190.16,2.6955721709999807,-0.938232421875,0.341552734375,-0.010498046875,12.793893129770991,-0.3969465648854962,-0.916030534351145,38219,-5,1,-3.421491884191024,19579.07841641782,0.001314,False,,False,,,,,30
190.16,2.6975733519999494,-0.938232421875,0.341552734375,-0.010498046875,12.793893129770991,-0.3969465648854962,-0.916030534351145,38219,-5,1,-3.421491884191024,19579.07841641782,0.001314,False,,False,,,,,30
190.165,2.6995756259999553,-0.93896484375,0.34228515625,-0.006591796875,13.007633587786259,-0.4580152671755725,-0.9770992366412213,38221,-4,-5,-3.416548036534774,19579.05943519299,-0.0065699999999999995,False,,False,,,,,30
190.165,2.701579584000001,-0.93896484375,0.34228515625,-0.006591796875,13.007633587786259,-0.4580152671755725,-0.9770992366412213,38221,-4,-5,-3.416548036534774,19579.05943519299,-0.0065699999999999995,False,,False,,,,,30
190.17000000000002,2.703579579999996,-0.939453125,0.3408203125,-0.0078125,13.343511450381678,-0.4580152671755725,-0.732824427480916,38219,-7,-2,-3.421491884191024,19579.045432066596,-0.002628,False,,False,,,,,30
190.17000000000002,2.7055966860000353,-0.939453125,0.3408203125,-0.0078125,13.343511450381678,-0.4580152671755725,-0.732824427480916,38219,-7,-2,-3.421491884191024,19579.045432066596,-0.002628,False,,False,,,,,30
190.17000000000002,2.7075992190000306,-0.939453125,0.3408203125,-0.0078125,13.343511450381678,-0.4580152671755725,-0.732824427480916,38219,-7,-2,-3.421491884191024,19579.045432066596,-0.002628,False,,False,,,,,30
190.175,2.7096001769999702,-0.93603515625,0.341064453125,-0.00927734375,13.465648854961831,-0.6106870229007634,-0.8854961832061068,38217,-5,-6,-3.426435731847274,19579.028637355255,-0.007884,False,,False,,,,,30
190.175,2.7116018579999945,-0.93603515625,0.341064453125,-0.00927734375,13.465648854961831,-0.6106870229007634,-0.8854961832061068,38217,-5,-6,-3.426435731847274,19579.028637355255,-0.007884,False,,False,,,,,30
190.18,2.7136039279999977,-0.9345703125,0.341796875,-0.008056640625,13.83206106870229,-0.9770992366412213,-0.7938931297709924,38218,0,3,-3.423963808019149,19579.00795837683,0.003942,False,,False,,,,,30
190.18,2.715604978999977,-0.9345703125,0.341796875,-0.008056640625,13.83206106870229,-0.9770992366412213,-0.7938931297709924,38218,0,3,-3.423963808019149,19579.00795837683,0.003942,False,,False,,,,,30
190.18,2.7176066780000383,-0.9345703125,0.341796875,-0.008056640625,13.83206106870229,-0.9770992366412213,-0.7938931297709924,38218,0,3,-3.423963808019149,19579.00795837683,0.003942,False,,False,,,,,30
190.185,2.719609284999933,-0.933349609375,0.343017578125,-0.006591796875,13.862595419847327,-1.1603053435114503,-0.4580152671755725,38217,0,0,-3.426435731847274,19578.99148914904,0.0,False,,False,,,,,30
190.185,2.7216107619999548,-0.933349609375,0.343017578125,-0.006591796875,13.862595419847327,-1.1603053435114503,-0.4580152671755725,38217,0,0,-3.426435731847274,19578.99148914904,0.0,False,,False,,,,,30
190.19,2.723614831999953,-0.93603515625,0.34814453125,-0.010986328125,13.893129770992365,-1.5267175572519083,-0.21374045801526717,38215,-4,1,-3.431379579503524,19578.975201824094,0.001314,False,,False,,,,,30
190.19,2.725614289999953,-0.93603515625,0.34814453125,-0.010986328125,13.893129770992365,-1.5267175572519083,-0.21374045801526717,38215,-4,1,-3.431379579503524,19578.975201824094,0.001314,False,,False,,,,,30
190.19,2.7276190080000333,-0.93603515625,0.34814453125,-0.010986328125,13.893129770992365,-1.5267175572519083,-0.21374045801526717,38215,-4,1,-3.431379579503524,19578.975201824094,0.001314,False,,False,,,,,30
190.195,2.729619836999973,-0.93212890625,0.349609375,-0.0146484375,13.923664122137405,-1.648854961832061,0.030534351145038167,38213,-9,0,-3.436323427159774,19578.95214071823,0.0,False,,False,,,,,30
190.195,2.7316212959999575,-0.93212890625,0.349609375,-0.0146484375,13.923664122137405,-1.648854961832061,0.030534351145038167,38213,-9,0,-3.436323427159774,19578.95214071823,0.0,False,,False,,,,,30
190.20000000000002,2.7336226799999395,-0.9287109375,0.353759765625,-0.007080078125,15.358778625954198,-2.259541984732824,0.030534351145038167,38213,-1,1,-3.436323427159774,19578.92553331095,0.001314,False,,False,,,,,30
190.20000000000002,2.735621101999982,-0.9287109375,0.353759765625,-0.007080078125,15.358778625954198,-2.259541984732824,0.030534351145038167,38213,-1,1,-3.436323427159774,19578.92553331095,0.001314,False,,False,,,,,30
190.20000000000002,2.7376249679999773,-0.9287109375,0.353759765625,-0.007080078125,15.358778625954198,-2.259541984732824,0.030534351145038167,38213,-1,1,-3.436323427159774,19578.92553331095,0.001314,False,,False,,,,,30
190.205,2.7396254630000385,-0.930908203125,0.349609375,-0.00732421875,15.541984732824426,-2.6259541984732824,0.24427480916030533,38211,-5,6,-3.441267274816024,19578.899923467343,0.007884,False,,False,,,,,30
190.205,2.741624569999999,-0.930908203125,0.349609375,-0.00732421875,15.541984732824426,-2.6259541984732824,0.24427480916030533,38211,-5,6,-3.441267274816024,19578.899923467343,0.007884,False,,False,,,,,30
190.21,2.743630879999955,-0.924072265625,0.3486328125,-0.0048828125,15.603053435114504,-2.778625954198473,0.183206106870229,38210,-5,2,-3.443739198644149,19578.87372926477,0.002628,False,,False,,,,,30
190.21,2.7456314690000454,-0.924072265625,0.3486328125,-0.0048828125,15.603053435114504,-2.778625954198473,0.183206106870229,38210,-5,2,-3.443739198644149,19578.87372926477,0.002628,False,,False,,,,,30
190.21,2.74763309399998,-0.924072265625,0.3486328125,-0.0048828125,15.603053435114504,-2.778625954198473,0.183206106870229,38210,-5,2,-3.443739198644149,19578.87372926477,0.002628,False,,False,,,,,30
190.215,2.7496361639999805,-0.92431640625,0.34375,-0.005859375,15.389312977099236,-3.114503816793893,0.42748091603053434,38207,-6,-4,-3.451154970128524,19578.843844307896,-0.005256,False,,False,,,,,30
190.215,2.7516386409999996,-0.92431640625,0.34375,-0.005859375,15.389312977099236,-3.114503816793893,0.42748091603053434,38207,-6,-4,-3.451154970128524,19578.843844307896,-0.005256,False,,False,,,,,30
190.22,2.753638525000042,-0.920654296875,0.351318359375,-0.00537109375,15.572519083969466,-3.2671755725190836,0.6717557251908397,38205,-5,0,-3.456098817784774,19578.807721446097,0.0,False,,False,,,,,29
190.22,2.75564005800004,-0.920654296875,0.351318359375,-0.00537109375,15.572519083969466,-3.2671755725190836,0.6717557251908397,38205,-5,0,-3.456098817784774,19578.807721446097,0.0,False,,False,,,,,29
190.22,2.757640924000043,-0.920654296875,0.351318359375,-0.00537109375,15.572519083969466,-3.2671755725190836,0.6717557251908397,38205,-5,0,-3.456098817784774,19578.807721446097,0.0,False,,False,,,,,29
190.225,2.759643105000009,-0.91796875,0.354248046875,-0.008544921875,15.725190839694656,-3.450381679389313,1.0687022900763359,38198,-19,2,-3.473402284581649,19578.75794710592,0.002628,False,,False,,,,,29
190.225,2.7616429519999883,-0.91796875,0.354248046875,-0.008544921875,15.725190839694656,-3.450381679389313,1.0687022900763359,38198,-19,2,-3.473402284581649,19578.75794710592,0.002628,False,,False,,,,,29
190.23,2.7636477810000315,-0.91552734375,0.356689453125,-0.010009765625,15.511450381679388,-3.480916030534351,1.6793893129770991,38191,-37,-1,-3.490705751378524,19578.681350528263,-0.001314,False,,False,,,,,30
190.23,2.765646165000021,-0.91552734375,0.356689453125,-0.010009765625,15.511450381679388,-3.480916030534351,1.6793893129770991,38191,-37,-1,-3.490705751378524,19578.681350528263,-0.001314,False,,False,,,,,30
190.23,2.7676490499999318,-0.91552734375,0.356689453125,-0.010009765625,15.511450381679388,-3.480916030534351,1.6793893129770991,38191,-37,-1,-3.490705751378524,19578.681350528263,-0.001314,False,,False,,,,,30
190.235,2.7696508970000195,-0.911376953125,0.362548828125,-0.008056640625,14.412213740458014,-3.32824427480916,2.687022900763359,38175,-80,5,-3.530256532628524,19578.558341440435,0.0065699999999999995,False,,False,,,,,30
190.235,2.771651504000033,-0.911376953125,0.362548828125,-0.008056640625,14.412213740458014,-3.32824427480916,2.687022900763359,38175,-80,5,-3.530256532628524,19578.558341440435,0.0065699999999999995,False,,False,,,,,30
