state_time,loop_time,accel_x,accel_y,accel_z,gyro_x,gyro_y,gyro_z,motor_angle,motor_velocity,motor_current,hip_angle,hip_velocity,hip_torque_from_current,did_heel_strike,gait_phase,did_toe_off,commanded_current,commanded_position,commanded_torque,commanded_voltage,temperature
1302.388,2.4199711090000164,-0.9658203125,0.234619140625,-0.018798828125,3.114503816793893,-0.2748091603053435,-0.061068702290076333,7731,3,0,169.87060546875,-0.06153006826319849,0.0,False,,False,,,,,31
1302.388,2.4219726320002337,-0.9658203125,0.234619140625,-0.018798828125,3.114503816793893,-0.2748091603053435,-0.061068702290076333,7731,3,0,169.87060546875,-0.06153006826319849,0.0,False,,False,,,,,31
1302.393,2.423973765000028,-0.970947265625,0.225341796875,-0.016357421875,3.0534351145038165,-0.366412213740458,0.12213740458015267,7732,1,6,169.892578125,-0.07595703673671422,0.007884,False,,False,,,,,31
1302.393,2.4259776949998013,-0.970947265625,0.225341796875,-0.016357421875,3.0534351145038165,-0.366412213740458,0.12213740458015267,7732,1,6,169.892578125,-0.07595703673671422,0.007884,False,,False,,,,,31
1302.3980000000001,2.4279760129998067,-0.968994140625,0.232177734375,-0.0166015625,3.114503816793893,-0.3969465648854962,-0.030534351145038167,7731,-1,5,169.87060546875,-0.08167871620816998,0.0065699999999999995,False,,False,,,,,31
1302.3980000000001,2.4299769429999287,-0.968994140625,0.232177734375,-0.0166015625,3.114503816793893,-0.3969465648854962,-0.030534351145038167,7731,-1,5,169.87060546875,-0.08167871620816998,0.0065699999999999995,False,,False,,,,,31
1302.3980000000001,2.4319786320002095,-0.968994140625,0.232177734375,-0.0166015625,3.114503816793893,-0.3969465648854962,-0.030534351145038167,7731,-1,5,169.87060546875,-0.08167871620816998,0.0065699999999999995,False,,False,,,,,31
1302.403,2.433982376000131,-0.96728515625,0.23046875,-0.014404296875,2.717557251908397,-0.33587786259541985,0.0,7732,3,0,169.892578125,-0.08528554408870033,0.0,False,,False,,,,,31
1302.403,2.435984658000052,-0.96728515625,0.23046875,-0.014404296875,2.717557251908397,-0.33587786259541985,0.0,7732,3,0,169.892578125,-0.08528554408870033,0.0,False,,False,,,,,31
1302.4080000000001,2.4379817909998565,-0.965087890625,0.232666015625,-0.015869140625,2.5038167938931295,-0.183206106870229,0.21374045801526717,7731,-7,0,169.87060546875,-0.08706960589400477,0.0,False,,False,,,,,31
1302.4080000000001,2.4399829980002323,-0.965087890625,0.232666015625,-0.015869140625,2.5038167938931295,-0.183206106870229,0.21374045801526717,7731,-7,0,169.87060546875,-0.08706960589400477,0.0,False,,False,,,,,31
1302.4080000000001,2.4419847610001852,-0.965087890625,0.232666015625,-0.015869140625,2.5038167938931295,-0.183206106870229,0.21374045801526717,7731,-7,0,169.87060546875,-0.08706960589400477,0.0,False,,False,,,,,31
1302.413,2.443986116999895,-0.965087890625,0.23681640625,-0.014892578125,2.3206106870229006,-0.15267175572519084,0.24427480916030533,7732,-6,-1,169.892578125,-0.08730183617195107,-0.001314,False,,False,,,,,31
1302.413,2.445988454000144,-0.965087890625,0.23681640625,-0.014892578125,2.3206106870229006,-0.15267175572519084,0.24427480916030533,7732,-6,-1,169.892578125,-0.08730183617195107,-0.001314,False,,False,,,,,31
1302.4180000000001,2.4479881980000755,-0.966796875,0.23779296875,-0.018798828125,2.259541984732824,-0.24427480916030533,0.33587786259541985,7731,-4,-10,169.87060546875,-0.08623153731293316,-0.013139999999999999,False,,False,,,,,31
1302.4180000000001,2.4499898320000284,-0.966796875,0.23779296875,-0.018798828125,2.259541984732824,-0.24427480916030533,0.33587786259541985,7731,-4,-10,169.87060546875,-0.08623153731293316,-0.013139999999999999,False,,False,,,,,31
1302.4180000000001,2.4519912800001293,-0.966796875,0.23779296875,-0.018798828125,2.259541984732824,-0.24427480916030533,0.33587786259541985,7731,-4,-10,169.87060546875,-0.08623153731293316,-0.013139999999999999,False,,False,,,,,31
1302.423,2.4539934869999342,-0.963623046875,0.23779296875,-0.01513671875,1.7099236641221374,-0.12213740458015267,0.732824427480916,7732,0,2,169.892578125,-0.08408629008659507,0.002628,False,,False,,,,,31
1302.423,2.45599565800012,-0.963623046875,0.23779296875,-0.01513671875,1.7099236641221374,-0.12213740458015267,0.732824427480916,7732,0,2,169.892578125,-0.08408629008659507,0.002628,False,,False,,,,,31
1302.428,2.457994901999882,-0.958740234375,0.23583984375,-0.01953125,1.8931297709923662,-0.12213740458015267,0.5190839694656488,7733,3,4,169.91455078125,-0.04924100823087951,0.005256,False,,False,,,,,31
1302.428,2.4599972760001947,-0.958740234375,0.23583984375,-0.01953125,1.8931297709923662,-0.12213740458015267,0.5190839694656488,7733,3,4,169.91455078125,-0.04924100823087951,0.005256,False,,False,,,,,31
1302.428,2.4620017799998095,-0.958740234375,0.23583984375,-0.01953125,1.8931297709923662,-0.12213740458015267,0.5190839694656488,7733,3,4,169.91455078125,-0.04924100823087951,0.005256,False,,False,,,,,31
1302.433,2.4639997839999523,-0.963134765625,0.236083984375,-0.017578125,2.16793893129771,-0.3053435114503817,0.6412213740458015,7733,4,2,169.91455078125,0.02839094115310018,0.002628,False,,False,,,,,31
1302.433,2.4660021949998736,-0.963134765625,0.236083984375,-0.017578125,2.16793893129771,-0.3053435114503817,0.6412213740458015,7733,4,2,169.91455078125,0.02839094115310018,0.002628,False,,False,,,,,31
1302.438,2.4680027360000167,-0.96240234375,0.22998046875,-0.01708984375,2.4732824427480917,-0.24427480916030533,0.48854961832061067,7731,-4,2,169.87060546875,0.07705610034698798,0.002628,False,,False,,,,,31
1302.438,2.470003628000086,-0.96240234375,0.22998046875,-0.01708984375,2.4732824427480917,-0.24427480916030533,0.48854961832061067,7731,-4,2,169.87060546875,0.07705610034698798,0.002628,False,,False,,,,,31
1302.438,2.4720051320000493,-0.96240234375,0.22998046875,-0.01708984375,2.4732824427480917,-0.24427480916030533,0.48854961832061067,7731,-4,2,169.87060546875,0.07705610034698798,0.002628,False,,False,,,,,31
1302.443,2.4740070429998013,-0.96435546875,0.228515625,-0.01708984375,2.1068702290076335,-0.12213740458015267,0.3969465648854962,7733,0,-1,169.91455078125,0.0848502028749473,-0.001314,False,,False,,,,,31
1302.443,2.4760091389998706,-0.96435546875,0.228515625,-0.01708984375,2.1068702290076335,-0.12213740458015267,0.3969465648854962,7733,0,-1,169.91455078125,0.0848502028749473,-0.001314,False,,False,,,,,31
1302.448,2.478008920999855,-0.96240234375,0.228515625,-0.01611328125,2.16793893129771,-0.12213740458015267,0.0916030534351145,7732,-3,-5,169.892578125,0.10606167345165132,-0.0065699999999999995,False,,False,,,,,31
1302.448,2.4800096469998607,-0.96240234375,0.228515625,-0.01611328125,2.16793893129771,-0.12213740458015267,0.0916030534351145,7732,-3,-5,169.892578125,0.10606167345165132,-0.0065699999999999995,False,,False,,,,,31
1302.448,2.4820117610001944,-0.96240234375,0.228515625,-0.01611328125,2.16793893129771,-0.12213740458015267,0.0916030534351145,7732,-3,-5,169.892578125,0.10606167345165132,-0.0065699999999999995,False,,False,,,,,31
1302.453,2.4840126909998617,-0.9638671875,0.232421875,-0.016357421875,1.83206106870229,-0.030534351145038167,0.183206106870229,7732,-6,2,169.892578125,0.12228304100734348,0.002628,False,,False,,,,,31
1302.453,2.4860158060000686,-0.9638671875,0.232421875,-0.016357421875,1.83206106870229,-0.030534351145038167,0.183206106870229,7732,-6,2,169.892578125,0.12228304100734348,0.002628,False,,False,,,,,31
1302.458,2.4880152169998837,-0.965576171875,0.230224609375,-0.0146484375,1.7099236641221374,-0.0916030534351145,0.15267175572519084,7732,-4,8,169.892578125,0.11817619877187265,0.010512,False,,False,,,,,31
1302.458,2.490016849999847,-0.965576171875,0.230224609375,-0.0146484375,1.7099236641221374,-0.0916030534351145,0.15267175572519084,7732,-4,8,169.892578125,0.11817619877187265,0.010512,False,,False,,,,,31
1302.458,2.4920178359998317,-0.965576171875,0.230224609375,-0.0146484375,1.7099236641221374,-0.0916030534351145,0.15267175572519084,7732,-4,8,169.892578125,0.11817619877187265,0.010512,False,,False,,,,,31
1302.463,2.494019691000176,-0.964111328125,0.23486328125,-0.01513671875,1.83206106870229,-0.030534351145038167,0.0,7732,1,-3,169.892578125,0.11302603958934669,-0.003942,False,,False,,,,,31
1302.463,2.496020843000224,-0.964111328125,0.23486328125,-0.01513671875,1.83206106870229,-0.030534351145038167,0.0,7732,1,-3,169.892578125,0.11302603958934669,-0.003942,False,,False,,,,,31
1302.468,2.4980216799999653,-0.968017578125,0.236328125,-0.02099609375,2.045801526717557,-0.183206106870229,-0.030534351145038167,7733,0,2,169.91455078125,0.12299263614209678,0.002628,False,,False,,,,,31
1302.468,2.5000229249999393,-0.968017578125,0.236328125,-0.02099609375,2.045801526717557,-0.183206106870229,-0.030534351145038167,7733,0,2,169.91455078125,0.12299263614209678,0.002628,False,,False,,,,,31
1302.468,2.5020245020000402,-0.968017578125,0.236328125,-0.02099609375,2.045801526717557,-0.183206106870229,-0.030534351145038167,7733,0,2,169.91455078125,0.12299263614209678,0.002628,False,,False,,,,,31
1302.473,2.5040258019998873,-0.969482421875,0.237548828125,-0.019775390625,1.9541984732824427,-0.24427480916030533,-0.183206106870229,7733,6,1,169.91455078125,0.1613859124634857,0.001314,False,,False,,,,,31
1302.473,2.506029842999851,-0.969482421875,0.237548828125,-0.019775390625,1.9541984732824427,-0.24427480916030533,-0.183206106870229,7733,6,1,169.91455078125,0.1613859124634857,0.001314,False,,False,,,,,31
1302.478,2.5080296430001,-0.964599609375,0.23779296875,-0.01904296875,1.618320610687023,-0.030534351145038167,-0.030534351145038167,7731,-4,0,169.87060546875,0.17527451283304535,0.0,False,,False,,,,,31
1302.478,2.510030553999968,-0.964599609375,0.23779296875,-0.01904296875,1.618320610687023,-0.030534351145038167,-0.030534351145038167,7731,-4,0,169.87060546875,0.17527451283304535,0.0,False,,False,,,,,31
1302.478,2.512031873000069,-0.964599609375,0.23779296875,-0.01904296875,1.618320610687023,-0.030534351145038167,-0.030534351145038167,7731,-4,0,169.87060546875,0.17527451283304535,0.0,False,,False,,,,,31
1302.483,2.514033488000223,-0.97119140625,0.238037109375,-0.01806640625,1.5572519083969465,-0.21374045801526717,-0.183206106870229,7733,0,0,169.91455078125,0.15253145518374586,0.0,False,,False,,,,,31
1302.483,2.516037417000007,-0.97119140625,0.238037109375,-0.01806640625,1.5572519083969465,-0.21374045801526717,-0.183206106870229,7733,0,0,169.91455078125,0.15253145518374586,0.0,False,,False,,,,,31
1302.488,2.5180369390000124,-0.969482421875,0.236083984375,-0.016845703125,1.984732824427481,-0.24427480916030533,-0.3053435114503817,7732,-5,6,169.892578125,0.14719729581700672,0.007884,False,,False,,,,,31
1302.488,2.5200386279998384,-0.969482421875,0.236083984375,-0.016845703125,1.984732824427481,-0.24427480916030533,-0.3053435114503817,7732,-5,6,169.892578125,0.14719729581700672,0.007884,False,,False,,,,,31
1302.488,2.5220399840000027,-0.969482421875,0.236083984375,-0.016845703125,1.984732824427481,-0.24427480916030533,-0.3053435114503817,7732,-5,6,169.892578125,0.14719729581700672,0.007884,False,,False,,,,,31
1302.493,2.524041487999966,-0.96826171875,0.23193359375,-0.015380859375,1.8625954198473282,-0.21374045801526717,-0.3969465648854962,7733,3,5,169.91455078125,0.15651482116579063,0.0065699999999999995,False,,False,,,,,31
1302.493,2.5260425470000882,-0.96826171875,0.23193359375,-0.015380859375,1.8625954198473282,-0.21374045801526717,-0.3969465648854962,7733,3,5,169.91455078125,0.15651482116579063,0.0065699999999999995,False,,False,,,,,31
1302.498,2.5280444210002315,-0.9697265625,0.2333984375,-0.015380859375,1.7404580152671756,-0.183206106870229,-0.2748091603053435,7733,5,2,169.91455078125,0.17796348768039275,0.002628,False,,False,,,,,31
1302.498,2.5300461840001844,-0.9697265625,0.2333984375,-0.015380859375,1.7404580152671756,-0.183206106870229,-0.2748091603053435,7733,5,2,169.91455078125,0.17796348768039275,0.002628,False,,False,,,,,31
1302.498,2.5320467989999997,-0.9697265625,0.2333984375,-0.015380859375,1.7404580152671756,-0.183206106870229,-0.2748091603053435,7733,5,2,169.91455078125,0.17796348768039275,0.002628,False,,False,,,,,31
1302.503,2.5340488390002065,-0.966552734375,0.22900390625,-0.01318359375,1.4961832061068703,0.15267175572519084,-0.3053435114503817,7732,2,0,169.892578125,0.19334180943566986,0.0,False,,False,,,,,31
1302.503,2.5360494910000853,-0.966552734375,0.22900390625,-0.01318359375,1.4961832061068703,0.15267175572519084,-0.3053435114503817,7732,2,0,169.892578125,0.19334180943566986,0.0,False,,False,,,,,31
1302.508,2.538050624999869,-0.966552734375,0.23291015625,-0.01416015625,1.282442748091603,0.21374045801526717,-0.15267175572519084,7733,0,3,169.91455078125,0.18749977581111374,0.003942,False,,False,,,,,31
1302.508,2.54005183199979,-0.966552734375,0.23291015625,-0.01416015625,1.282442748091603,0.21374045801526717,-0.15267175572519084,7733,0,3,169.91455078125,0.18749977581111374,0.003942,False,,False,,,,,31
1302.508,2.5420532990001448,-0.966552734375,0.23291015625,-0.01416015625,1.282442748091603,0.21374045801526717,-0.15267175572519084,7733,0,3,169.91455078125,0.18749977581111374,0.003942,False,,False,,,,,31
1302.513,2.5440549509999073,-0.96826171875,0.232177734375,-0.014892578125,1.1908396946564885,0.030534351145038167,-0.030534351145038167,7732,-2,4,169.892578125,0.17989267456473362,0.005256,False,,False,,,,,31
1302.513,2.54605830599985,-0.96826171875,0.232177734375,-0.014892578125,1.1908396946564885,0.030534351145038167,-0.030534351145038167,7732,-2,4,169.892578125,0.17989267456473362,0.005256,False,,False,,,,,31
1302.518,2.5480575319998024,-0.9677734375,0.23486328125,-0.012939453125,1.0381679389312977,0.183206106870229,-0.12213740458015267,7733,2,1,169.91455078125,0.17091809308400122,0.001314,False,,False,,,,,31
1302.518,2.5500577769998927,-0.9677734375,0.23486328125,-0.012939453125,1.0381679389312977,0.183206106870229,-0.12213740458015267,7733,2,1,169.91455078125,0.17091809308400122,0.001314,False,,False,,,,,31
1302.518,2.5520594469999196,-0.9677734375,0.23486328125,-0.012939453125,1.0381679389312977,0.183206106870229,-0.12213740458015267,7733,2,1,169.91455078125,0.17091809308400122,0.001314,False,,False,,,,,31
1302.5230000000001,2.5540611169999465,-0.968994140625,0.235595703125,-0.015869140625,1.0381679389312977,0.366412213740458,0.0,7733,2,0,169.91455078125,0.17684428714130332,0.0,False,,False,,,,,31
1302.5230000000001,2.5560615650001637,-0.968994140625,0.235595703125,-0.015869140625,1.0381679389312977,0.366412213740458,0.0,7733,2,0,169.91455078125,0.17684428714130332,0.0,False,,False,,,,,31
1302.528,2.5580631060001906,-0.968505859375,0.231201171875,-0.015625,0.8854961832061068,0.33587786259541985,0.030534351145038167,7733,7,6,169.91455078125,0.19515928591937143,0.007884,False,,False,,,,,31
1302.528,2.5600647400001435,-0.968505859375,0.231201171875,-0.015625,0.8854961832061068,0.33587786259541985,0.030534351145038167,7733,7,6,169.91455078125,0.19515928591937143,0.007884,False,,False,,,,,31
1302.528,2.562065798999811,-0.968505859375,0.231201171875,-0.015625,0.8854961832061068,0.33587786259541985,0.030534351145038167,7733,7,6,169.91455078125,0.19515928591937143,0.007884,False,,False,,,,,31
1302.5330000000001,2.5640673210000386,-0.96728515625,0.228759765625,-0.01708984375,0.7938931297709924,0.4580152671755725,-0.030534351145038167,7732,-1,-1,169.892578125,0.1917494551314692,-0.001314,False,,False,,,,,31
1302.5330000000001,2.5660704169999917,-0.96728515625,0.228759765625,-0.01708984375,0.7938931297709924,0.4580152671755725,-0.030534351145038167,7732,-1,-1,169.892578125,0.1917494551314692,-0.001314,False,,False,,,,,31
1302.538,2.5680700879997858,-0.9658203125,0.22802734375,-0.0146484375,0.8244274809160305,0.42748091603053434,0.061068702290076333,7733,3,-2,169.91455078125,0.17020139293953038,-0.002628,False,,False,,,,,31
1302.538,2.570071554000151,-0.9658203125,0.22802734375,-0.0146484375,0.8244274809160305,0.42748091603053434,0.061068702290076333,7733,3,-2,169.91455078125,0.17020139293953038,-0.002628,False,,False,,,,,31
1302.538,2.5720730580001145,-0.9658203125,0.22802734375,-0.0146484375,0.8244274809160305,0.42748091603053434,0.061068702290076333,7733,3,-2,169.91455078125,0.17020139293953038,-0.002628,False,,False,,,,,31
1302.5430000000001,2.5740743770002155,-0.971435546875,0.225830078125,-0.0146484375,0.6106870229007634,0.5190839694656488,0.12213740458015267,7733,-1,0,169.91455078125,0.1656116822938201,0.0,False,,False,,,,,31
1302.5430000000001,2.5760757510001895,-0.971435546875,0.225830078125,-0.0146484375,0.6106870229007634,0.5190839694656488,0.12213740458015267,7733,-1,0,169.91455078125,0.1656116822938201,0.0,False,,False,,,,,31
1302.548,2.578076828000121,-0.968017578125,0.23046875,-0.01513671875,0.366412213740458,0.7022900763358778,0.24427480916030533,7732,0,4,169.892578125,0.15937008968297794,0.005256,False,,False,,,,,31
1302.548,2.580078462000074,-0.968017578125,0.23046875,-0.01513671875,0.366412213740458,0.7022900763358778,0.24427480916030533,7732,0,4,169.892578125,0.15937008968297794,0.005256,False,,False,,,,,31
1302.548,2.582079983999847,-0.968017578125,0.23046875,-0.01513671875,0.366412213740458,0.7022900763358778,0.24427480916030533,7732,0,4,169.892578125,0.15937008968297794,0.005256,False,,False,,,,,31
1302.553,2.584081580000202,-0.96875,0.2275390625,-0.015869140625,0.2748091603053435,0.7022900763358778,0.21374045801526717,7733,-1,2,169.91455078125,0.13592039944721493,0.002628,False,,False,,,,,31
1302.553,2.58608236200007,-0.96875,0.2275390625,-0.015869140625,0.2748091603053435,0.7022900763358778,0.21374045801526717,7733,-1,2,169.91455078125,0.13592039944721493,0.002628,False,,False,,,,,31
1302.558,2.5880848470001183,-0.96875,0.226806640625,-0.0126953125,0.15267175572519084,0.732824427480916,0.030534351145038167,7732,0,-3,169.892578125,0.11431970746003031,-0.003942,False,,False,,,,,31
1302.558,2.590085813999849,-0.96875,0.226806640625,-0.0126953125,0.15267175572519084,0.732824427480916,0.030534351145038167,7732,0,-3,169.892578125,0.11431970746003031,-0.003942,False,,False,,,,,31
1302.558,2.5920875950000664,-0.96875,0.226806640625,-0.0126953125,0.15267175572519084,0.732824427480916,0.030534351145038167,7732,0,-3,169.892578125,0.11431970746003031,-0.003942,False,,False,,,,,31
1302.563,2.5940889879998394,-0.965576171875,0.2294921875,-0.01513671875,0.2748091603053435,0.7938931297709924,0.183206106870229,7732,-1,-4,169.892578125,0.07866429359272484,-0.005256,False,,False,,,,,31
1302.563,2.596090916999856,-0.965576171875,0.2294921875,-0.01513671875,0.2748091603053435,0.7938931297709924,0.183206106870229,7732,-1,-4,169.892578125,0.07866429359272484,-0.005256,False,,False,,,,,31
1302.568,2.5980923840002106,-0.968994140625,0.229736328125,-0.01171875,-0.183206106870229,0.8244274809160305,0.21374045801526717,7731,-9,-2,169.87060546875,0.015843462072563166,-0.002628,False,,False,,,,,31
1302.568,2.600093499000195,-0.968994140625,0.229736328125,-0.01171875,-0.183206106870229,0.8244274809160305,0.21374045801526717,7731,-9,-2,169.87060546875,0.015843462072563166,-0.002628,False,,False,,,,,31
1302.568,2.602095188000021,-0.968994140625,0.229736328125,-0.01171875,-0.183206106870229,0.8244274809160305,0.21374045801526717,7731,-9,-2,169.87060546875,0.015843462072563166,-0.002628,False,,False,,,,,31
1302.573,2.6040968399997837,-0.967529296875,0.22607421875,-0.0166015625,-0.061068702290076333,0.8549618320610687,0.061068702290076333,7733,-1,5,169.91455078125,-0.03697850528909239,0.0065699999999999995,False,,False,,,,,31
1302.573,2.606098566000128,-0.967529296875,0.22607421875,-0.0166015625,-0.061068702290076333,0.8549618320610687,0.061068702290076333,7733,-1,5,169.91455078125,-0.03697850528909239,0.0065699999999999995,False,,False,,,,,31
1302.578,2.6080992540000807,-0.966552734375,0.2265625,-0.01318359375,-0.21374045801526717,0.8549618320610687,0.2748091603053435,7733,2,3,169.91455078125,-0.032917611888356325,0.003942,False,,False,,,,,31
1302.578,2.610103739999886,-0.966552734375,0.2265625,-0.01318359375,-0.21374045801526717,0.8549618320610687,0.2748091603053435,7733,2,3,169.91455078125,-0.032917611888356325,0.003942,False,,False,,,,,31
1302.578,2.612102132000018,-0.966552734375,0.2265625,-0.01318359375,-0.21374045801526717,0.8549618320610687,0.2748091603053435,7733,2,3,169.91455078125,-0.032917611888356325,0.003942,False,,False,,,,,31
1302.583,2.6141036539997913,-0.968505859375,0.2294921875,-0.013916015625,-0.3053435114503817,0.8854961832061068,0.0,7732,0,-2,169.892578125,-0.013125445425032935,-0.002628,False,,False,,,,,31
1302.583,2.6161038250002093,-0.968505859375,0.2294921875,-0.013916015625,-0.3053435114503817,0.8854961832061068,0.0,7732,0,-2,169.892578125,-0.013125445425032935,-0.002628,False,,False,,,,,31
1302.588,2.6181055140000353,-0.967529296875,0.228515625,-0.013916015625,-0.6106870229007634,1.099236641221374,-0.030534351145038167,7732,0,1,169.892578125,-0.028196847280157308,0.001314,False,,False,,,,,31
1302.588,2.6201070170000094,-0.967529296875,0.228515625,-0.013916015625,-0.6106870229007634,1.099236641221374,-0.030534351145038167,7732,0,1,169.892578125,-0.028196847280157308,0.001314,False,,False,,,,,31
1302.588,2.6221081690000574,-0.967529296875,0.228515625,-0.013916015625,-0.6106870229007634,1.099236641221374,-0.030534351145038167,7732,0,1,169.892578125,-0.028196847280157308,0.001314,False,,False,,,,,31
1302.593,2.6241093210001054,-0.96923828125,0.229736328125,-0.015625,-0.5190839694656488,1.0381679389312977,0.061068702290076333,7733,1,-1,169.91455078125,-0.04040586836967816,-0.001314,False,,False,,,,,31
1302.593,2.6261116770001536,-0.96923828125,0.229736328125,-0.015625,-0.5190839694656488,1.0381679389312977,0.061068702290076333,7733,1,-1,169.91455078125,-0.04040586836967816,-0.001314,False,,False,,,,,31
1302.598,2.628112050999789,-0.96728515625,0.23095703125,-0.012939453125,-0.8244274809160305,1.0687022900763359,0.061068702290076333,7732,-1,-4,169.892578125,-0.03412609546551633,-0.005256,False,,False,,,,,31
1302.598,2.630113035999784,-0.96728515625,0.23095703125,-0.012939453125,-0.8244274809160305,1.0687022900763359,0.061068702290076333,7732,-1,-4,169.892578125,-0.03412609546551633,-0.005256,False,,False,,,,,31
1302.598,2.6321146139998746,-0.96728515625,0.23095703125,-0.012939453125,-0.8244274809160305,1.0687022900763359,0.061068702290076333,7732,-1,-4,169.892578125,-0.03412609546551633,-0.005256,False,,False,,,,,31
1302.603,2.6341155619998062,-0.96875,0.2294921875,-0.014892578125,-0.6412213740458015,1.0076335877862594,0.0,7733,2,-7,169.91455078125,-0.028374409421048217,-0.009198,False,,False,,,,,31
1302.603,2.636117102999833,-0.96875,0.2294921875,-0.014892578125,-0.6412213740458015,1.0076335877862594,0.0,7733,2,-7,169.91455078125,-0.028374409421048217,-0.009198,False,,False,,,,,31
1302.608,2.638118254999881,-0.96630859375,0.229736328125,-0.01318359375,-1.1603053435114503,1.0076335877862594,0.12213740458015267,7732,0,-4,169.892578125,-0.023148151105892786,-0.005256,False,,False,,,,,31
1302.608,2.6401195919997917,-0.96630859375,0.229736328125,-0.01318359375,-1.1603053435114503,1.0076335877862594,0.12213740458015267,7732,0,-4,169.892578125,-0.023148151105892786,-0.005256,False,,False,,,,,31
1302.608,2.642121465999935,-0.96630859375,0.229736328125,-0.01318359375,-1.1603053435114503,1.0076335877862594,0.12213740458015267,7732,0,-4,169.892578125,-0.023148151105892786,-0.005256,False,,False,,,,,31
1302.613,2.644122839999909,-0.963623046875,0.23095703125,-0.0166015625,-0.9465648854961831,0.9465648854961831,-0.15267175572519084,7731,-8,-3,169.87060546875,-0.050268667806415715,-0.003942,False,,False,,,,,31
1302.613,2.646124066000084,-0.963623046875,0.23095703125,-0.0166015625,-0.9465648854961831,0.9465648854961831,-0.15267175572519084,7731,-8,-3,169.87060546875,-0.050268667806415715,-0.003942,False,,False,,,,,31
1302.618,2.648126143999889,-0.967041015625,0.230712890625,-0.01611328125,-1.0381679389312977,1.0381679389312977,0.061068702290076333,7732,1,0,169.892578125,-0.1040764235298854,0.0,False,,False,,,,,31
1302.618,2.6501265550000426,-0.967041015625,0.230712890625,-0.01611328125,-1.0381679389312977,1.0381679389312977,0.061068702290076333,7732,1,0,169.892578125,-0.1040764235298854,0.0,False,,False,,,,,31
1302.618,2.652127520999784,-0.967041015625,0.230712890625,-0.01611328125,-1.0381679389312977,1.0381679389312977,0.061068702290076333,7732,1,0,169.892578125,-0.1040764235298854,0.0,False,,False,,,,,31
1302.623,2.6541288950002127,-0.969970703125,0.23193359375,-0.0146484375,-1.0687022900763359,1.099236641221374,-0.12213740458015267,7733,-5,-6,169.91455078125,-0.11578437748933296,-0.007884,False,,False,,,,,31
1302.623,2.6561306029998377,-0.969970703125,0.23193359375,-0.0146484375,-1.0687022900763359,1.099236641221374,-0.12213740458015267,7733,-5,-6,169.91455078125,-0.11578437748933296,-0.007884,False,,False,,,,,31
1302.628,2.6581320509999387,-0.96435546875,0.2373046875,-0.0126953125,-1.2519083969465647,1.0687022900763359,-0.030534351145038167,7733,1,-6,169.91455078125,-0.07616194737486488,-0.007884,False,,False,,,,,31
1302.628,2.660133165999923,-0.96435546875,0.2373046875,-0.0126953125,-1.2519083969465647,1.0687022900763359,-0.030534351145038167,7733,1,-6,169.91455078125,-0.07616194737486488,-0.007884,False,,False,,,,,31
1302.628,2.6621344469999713,-0.96435546875,0.2373046875,-0.0126953125,-1.2519083969465647,1.0687022900763359,-0.030534351145038167,7733,1,-6,169.91455078125,-0.07616194737486488,-0.007884,False,,False,,,,,31
1302.633,2.664136229000178,-0.9658203125,0.23486328125,-0.01611328125,-1.1908396946564885,1.282442748091603,-0.0916030534351145,7732,-1,0,169.892578125,-0.04188743863706408,0.0,False,,False,,,,,31
1302.633,2.666136695000205,-0.9658203125,0.23486328125,-0.01611328125,-1.1908396946564885,1.282442748091603,-0.0916030534351145,7732,-1,0,169.892578125,-0.04188743863706408,0.0,False,,False,,,,,31
1302.638,2.6681382920000942,-0.96630859375,0.234375,-0.0166015625,-1.0076335877862594,1.3129770992366412,-0.15267175572519084,7733,7,2,169.91455078125,-0.028502229560914888,0.002628,False,,False,,,,,31
1302.638,2.6701396660000682,-0.96630859375,0.234375,-0.0166015625,-1.0076335877862594,1.3129770992366412,-0.15267175572519084,7733,7,2,169.91455078125,-0.028502229560914888,0.002628,False,,False,,,,,31
1302.638,2.672141446999831,-0.96630859375,0.234375,-0.0166015625,-1.0076335877862594,1.3129770992366412,-0.15267175572519084,7733,7,2,169.91455078125,-0.028502229560914888,0.002628,False,,False,,,,,31
1302.643,2.6741429329999846,-0.963134765625,0.239990234375,-0.016845703125,-1.129770992366412,1.4961832061068703,-0.12213740458015267,7733,0,0,169.91455078125,-0.0009678815363957614,0.0,False,,False,,,,,31
1302.643,2.676144491999821,-0.963134765625,0.239990234375,-0.016845703125,-1.129770992366412,1.4961832061068703,-0.12213740458015267,7733,0,0,169.91455078125,-0.0009678815363957614,0.0,False,,False,,,,,31
1302.6480000000001,2.6781457359998058,-0.9638671875,0.23828125,-0.01611328125,-1.099236641221374,1.1603053435114503,-0.12213740458015267,7733,4,-1,169.91455078125,0.0380129834389828,-0.001314,False,,False,,,,,31
1302.6480000000001,2.68014746200015,-0.9638671875,0.23828125,-0.01611328125,-1.099236641221374,1.1603053435114503,-0.12213740458015267,7733,4,-1,169.91455078125,0.0380129834389828,-0.001314,False,,False,,,,,31
1302.6480000000001,2.682149076999849,-0.9638671875,0.23828125,-0.01611328125,-1.099236641221374,1.1603053435114503,-0.12213740458015267,7733,4,-1,169.91455078125,0.0380129834389828,-0.001314,False,,False,,,,,31
1302.653,2.684154155000215,-0.964599609375,0.23583984375,-0.014892578125,-0.9770992366412213,1.2213740458015268,0.0,7734,11,3,169.9365234375,0.08601195726394288,0.003942,False,,False,,,,,31
1302.653,2.68615199199985,-0.964599609375,0.23583984375,-0.014892578125,-0.9770992366412213,1.2213740458015268,0.0,7734,11,3,169.9365234375,0.08601195726394288,0.003942,False,,False,,,,,31
1302.6580000000001,2.6881533099999615,-0.9599609375,0.23779296875,-0.015380859375,-1.0381679389312977,1.2213740458015268,-0.061068702290076333,7733,0,6,169.91455078125,0.14086537836257632,0.007884,False,,False,,,,,31
1302.6580000000001,2.6901550180000413,-0.9599609375,0.23779296875,-0.015380859375,-1.0381679389312977,1.2213740458015268,-0.061068702290076333,7733,0,6,169.91455078125,0.14086537836257632,0.007884,False,,False,,,,,31
1302.6580000000001,2.692156429000079,-0.9599609375,0.23779296875,-0.015380859375,-1.0381679389312977,1.2213740458015268,-0.061068702290076333,7733,0,6,169.91455078125,0.14086537836257632,0.007884,False,,False,,,,,31
1302.663,2.694158543999947,-0.962646484375,0.239990234375,-0.01513671875,-1.0076335877862594,1.282442748091603,-0.0916030534351145,7732,-3,0,169.892578125,0.15291579267822777,0.0,False,,False,,,,,31
1302.663,2.69616067700008,-0.962646484375,0.239990234375,-0.01513671875,-1.0076335877862594,1.282442748091603,-0.0916030534351145,7732,-3,0,169.892578125,0.15291579267822777,0.0,False,,False,,,,,31
1302.6680000000001,2.698161736000202,-0.962890625,0.24169921875,-0.015869140625,-1.0076335877862594,1.3129770992366412,0.030534351145038167,7732,3,-3,169.892578125,0.11304215144948143,-0.003942,False,,False,,,,,31
1302.6680000000001,2.7001630919999116,-0.962890625,0.24169921875,-0.015869140625,-1.0076335877862594,1.3129770992366412,0.030534351145038167,7732,3,-3,169.892578125,0.11304215144948143,-0.003942,False,,False,,,,,31
1302.6680000000001,2.702164595999875,-0.962890625,0.24169921875,-0.015869140625,-1.0076335877862594,1.3129770992366412,0.030534351145038167,7732,3,-3,169.892578125,0.11304215144948143,-0.003942,False,,False,,,,,31
1302.673,2.7041660810000394,-0.957275390625,0.24365234375,-0.015625,-0.8549618320610687,0.9465648854961831,-0.030534351145038167,7732,0,-2,169.892578125,0.06210746736748235,-0.002628,False,,False,,,,,31
1302.673,2.706167714000003,-0.957275390625,0.24365234375,-0.015625,-0.8549618320610687,0.9465648854961831,-0.030534351145038167,7732,0,-2,169.892578125,0.06210746736748235,-0.002628,False,,False,,,,,31
1302.678,2.7081698470001356,-0.958740234375,0.240966796875,-0.017333984375,-0.732824427480916,1.129770992366412,0.030534351145038167,7732,-3,0,169.892578125,0.018566150575495127,0.0,False,,False,,,,,31
1302.678,2.7101705730001413,-0.958740234375,0.240966796875,-0.017333984375,-0.732824427480916,1.129770992366412,0.030534351145038167,7732,-3,0,169.892578125,0.018566150575495127,0.0,False,,False,,,,,31
1302.678,2.7121726330001366,-0.958740234375,0.240966796875,-0.017333984375,-0.732824427480916,1.129770992366412,0.030534351145038167,7732,-3,0,169.892578125,0.018566150575495127,0.0,False,,False,,,,,31
1302.683,2.7141743580000366,-0.9609375,0.2421875,-0.017333984375,-0.7022900763358778,1.0381679389312977,-0.0916030534351145,7733,10,0,169.91455078125,-0.002239211056375319,0.0,False,,False,,,,,31
1302.683,2.7161754550002115,-0.9609375,0.2421875,-0.017333984375,-0.7022900763358778,1.0381679389312977,-0.0916030534351145,7733,10,0,169.91455078125,-0.002239211056375319,0.0,False,,False,,,,,31
1302.688,2.7181768840000586,-0.959716796875,0.24267578125,-0.018310546875,-0.5801526717557252,0.7633587786259541,-0.030534351145038167,7733,5,-2,169.91455078125,0.012206545965395497,-0.002628,False,,False,,,,,31
1302.688,2.720178259000022,-0.959716796875,0.24267578125,-0.018310546875,-0.5801526717557252,0.7633587786259541,-0.030534351145038167,7733,5,-2,169.91455078125,0.012206545965395497,-0.002628,False,,False,,,,,31
1302.688,2.722179983999922,-0.959716796875,0.24267578125,-0.018310546875,-0.5801526717557252,0.7633587786259541,-0.030534351145038167,7733,5,-2,169.91455078125,0.012206545965395497,-0.002628,False,,False,,,,,31
1302.693,2.7241810989999067,-0.9609375,0.242919921875,-0.019287109375,-0.4580152671755725,0.6412213740458015,0.061068702290076333,7731,-5,0,169.87060546875,0.00820784319971126,0.0,False,,False,,,,,31
1302.693,2.726183065999976,-0.9609375,0.242919921875,-0.019287109375,-0.4580152671755725,0.6412213740458015,0.061068702290076333,7731,-5,0,169.87060546875,0.00820784319971126,0.0,False,,False,,,,,31
1302.698,2.728184272999897,-0.9599609375,0.246826171875,-0.021728515625,-0.48854961832061067,0.7022900763358778,-0.12213740458015267,7732,-5,2,169.892578125,-0.04300547994707819,0.002628,False,,False,,,,,31
1302.698,2.7301861290002307,-0.9599609375,0.246826171875,-0.021728515625,-0.48854961832061067,0.7022900763358778,-0.12213740458015267,7732,-5,2,169.892578125,-0.04300547994707819,0.002628,False,,False,,,,,31
1302.698,2.7321878180000567,-0.9599609375,0.246826171875,-0.021728515625,-0.48854961832061067,0.7022900763358778,-0.12213740458015267,7732,-5,2,169.892578125,-0.04300547994707819,0.002628,False,,False,,,,,31
1302.703,2.734189525000147,-0.958251953125,0.242431640625,-0.019287109375,-0.3969465648854962,0.6412213740458015,-0.030534351145038167,7732,0,-2,169.892578125,-0.08525732577980333,-0.002628,False,,False,,,,,31
1302.703,2.7361905470002057,-0.958251953125,0.242431640625,-0.019287109375,-0.3969465648854962,0.6412213740458015,-0.030534351145038167,7732,0,-2,169.892578125,-0.08525732577980333,-0.002628,False,,False,,,,,31
1302.708,2.7381924030000846,-0.957763671875,0.24267578125,-0.021484375,-0.183206106870229,0.4580152671755725,0.15267175572519084,7732,0,-1,169.892578125,-0.10347910372494935,-0.001314,False,,False,,,,,31
1302.708,2.740193296000143,-0.957763671875,0.24267578125,-0.021484375,-0.183206106870229,0.4580152671755725,0.15267175572519084,7732,0,-1,169.892578125,-0.10347910372494935,-0.001314,False,,False,,,,,31
1302.708,2.7421947439997894,-0.957763671875,0.24267578125,-0.021484375,-0.183206106870229,0.4580152671755725,0.15267175572519084,7732,0,-1,169.892578125,-0.10347910372494935,-0.001314,False,,False,,,,,31
1302.713,2.744195932999901,-0.96044921875,0.2373046875,-0.019287109375,-0.15267175572519084,0.3969465648854962,-0.030534351145038167,7732,0,-1,169.892578125,-0.11723496844531914,-0.001314,False,,False,,,,,31
1302.713,2.7461973810000018,-0.96044921875,0.2373046875,-0.019287109375,-0.15267175572519084,0.3969465648854962,-0.030534351145038167,7732,0,-1,169.892578125,-0.11723496844531914,-0.001314,False,,False,,,,,31
1302.718,2.7481987179999123,-0.96044921875,0.23681640625,-0.01611328125,-0.12213740458015267,0.366412213740458,0.061068702290076333,7733,0,0,169.91455078125,-0.11113718251933227,0.0,False,,False,,,,,31
1302.718,2.7502007399998547,-0.96044921875,0.23681640625,-0.01611328125,-0.12213740458015267,0.366412213740458,0.061068702290076333,7733,0,0,169.91455078125,-0.11113718251933227,0.0,False,,False,,,,,31
1302.718,2.7522015220001776,-0.96044921875,0.23681640625,-0.01611328125,-0.12213740458015267,0.366412213740458,0.061068702290076333,7733,0,0,169.91455078125,-0.11113718251933227,0.0,False,,False,,,,,31
1302.723,2.754203062000215,-0.959228515625,0.2392578125,-0.020751953125,-0.0916030534351145,0.366412213740458,0.12213740458015267,7732,0,-2,169.892578125,-0.08850662151677267,-0.002628,False,,False,,,,,31
1302.723,2.756204307000189,-0.959228515625,0.2392578125,-0.020751953125,-0.0916030534351145,0.366412213740458,0.12213740458015267,7732,0,-2,169.892578125,-0.08850662151677267,-0.002628,False,,False,,,,,31
1302.728,2.7582052920001843,-0.96142578125,0.236328125,-0.01611328125,-0.12213740458015267,0.33587786259541985,0.15267175572519084,7734,-2,0,169.9365234375,-0.052362967314309,0.0,False,,False,,,,,31
1302.728,2.760207962000095,-0.96142578125,0.236328125,-0.01611328125,-0.12213740458015267,0.33587786259541985,0.15267175572519084,7734,-2,0,169.9365234375,-0.052362967314309,0.0,False,,False,,,,,31
1302.728,2.7622083360001852,-0.96142578125,0.236328125,-0.01611328125,-0.12213740458015267,0.33587786259541985,0.15267175572519084,7734,-2,0,169.9365234375,-0.052362967314309,0.0,False,,False,,,,,31
1302.733,2.7642093399999794,-0.96142578125,0.232666015625,-0.019775390625,-0.183206106870229,0.42748091603053434,0.0916030534351145,7733,3,-2,169.91455078125,0.010485589944152593,-0.002628,False,,False,,,,,31
1302.733,2.7662108810000063,-0.96142578125,0.232666015625,-0.019775390625,-0.183206106870229,0.42748091603053434,0.0916030534351145,7733,3,-2,169.91455078125,0.010485589944152593,-0.002628,False,,False,,,,,31
1302.738,2.768211736000012,-0.96630859375,0.232177734375,-0.01953125,0.030534351145038167,0.4580152671755725,0.030534351145038167,7733,7,-4,169.91455078125,0.0629493470183072,-0.005256,False,,False,,,,,31
1302.738,2.7702138509998804,-0.96630859375,0.232177734375,-0.01953125,0.030534351145038167,0.4580152671755725,0.030534351145038167,7733,7,-4,169.91455078125,0.0629493470183072,-0.005256,False,,False,,,,,31
1302.738,2.772214872999939,-0.96630859375,0.232177734375,-0.01953125,0.030534351145038167,0.4580152671755725,0.030534351145038167,7733,7,-4,169.91455078125,0.0629493470183072,-0.005256,False,,False,,,,,31
1302.743,2.7742170989999977,-0.967041015625,0.23583984375,-0.01953125,-0.183206106870229,0.5190839694656488,0.21374045801526717,7733,2,0,169.91455078125,0.09004351925557307,0.0,False,,False,,,,,31
1302.743,2.7762174549998235,-0.967041015625,0.23583984375,-0.01953125,-0.183206106870229,0.5190839694656488,0.21374045801526717,7733,2,0,169.91455078125,0.09004351925557307,0.0,False,,False,,,,,31
1302.748,2.7782195879999563,-0.965087890625,0.234130859375,-0.01904296875,-0.12213740458015267,0.4580152671755725,0.12213740458015267,7733,6,1,169.91455078125,0.11142182731167424,0.001314,False,,False,,,,,31
1302.748,2.7802201290000994,-0.965087890625,0.234130859375,-0.01904296875,-0.12213740458015267,0.4580152671755725,0.12213740458015267,7733,6,1,169.91455078125,0.11142182731167424,0.001314,False,,False,,,,,31
1302.748,2.782221873999788,-0.965087890625,0.234130859375,-0.01904296875,-0.12213740458015267,0.4580152671755725,0.12213740458015267,7733,6,1,169.91455078125,0.11142182731167424,0.001314,False,,False,,,,,31
1302.753,2.78422330300009,-0.965576171875,0.23291015625,-0.01904296875,-0.2748091603053435,0.6717557251908397,0.12213740458015267,7734,0,6,169.9365234375,0.14362080965708152,0.007884,False,,False,,,,,31
1302.753,2.786225177000233,-0.965576171875,0.23291015625,-0.01904296875,-0.2748091603053435,0.6717557251908397,0.12213740458015267,7734,0,6,169.9365234375,0.14362080965708152,0.007884,False,,False,,,,,31
1302.758,2.788226051000038,-0.96923828125,0.23193359375,-0.0185546875,-0.15267175572519084,0.6106870229007634,0.030534351145038167,7733,3,3,169.91455078125,0.18441220413579792,0.003942,False,,False,,,,,31
1302.758,2.790227203000086,-0.96923828125,0.23193359375,-0.0185546875,-0.15267175572519084,0.6106870229007634,0.030534351145038167,7733,3,3,169.91455078125,0.18441220413579792,0.003942,False,,False,,,,,31
1302.758,2.7922287810001762,-0.96923828125,0.23193359375,-0.0185546875,-0.15267175572519084,0.6106870229007634,0.030534351145038167,7733,3,3,169.91455078125,0.18441220413579792,0.003942,False,,False,,,,,31
1302.763,2.794229729000108,-0.968017578125,0.2373046875,-0.0185546875,-0.183206106870229,0.6412213740458015,0.21374045801526717,7732,0,-3,169.892578125,0.1840592968500344,-0.003942,False,,False,,,,,31
1302.763,2.796231270000135,-0.968017578125,0.2373046875,-0.0185546875,-0.183206106870229,0.6412213740458015,0.21374045801526717,7732,0,-3,169.892578125,0.1840592968500344,-0.003942,False,,False,,,,,31
1302.768,2.798232181000003,-0.9658203125,0.234619140625,-0.01513671875,-0.183206106870229,0.8244274809160305,0.0916030534351145,7732,0,-1,169.892578125,0.1333506549484794,-0.001314,False,,False,,,,,31
1302.768,2.8002334249999876,-0.9658203125,0.234619140625,-0.01513671875,-0.183206106870229,0.8244274809160305,0.0916030534351145,7732,0,-1,169.892578125,0.1333506549484794,-0.001314,False,,False,,,,,31
1302.768,2.802235170000131,-0.9658203125,0.234619140625,-0.01513671875,-0.183206106870229,0.8244274809160305,0.0916030534351145,7732,0,-1,169.892578125,0.1333506549484794,-0.001314,False,,False,,,,,31
1302.7730000000001,2.8042363399999886,-0.968017578125,0.23291015625,-0.017578125,-0.24427480916030533,0.732824427480916,0.12213740458015267,7732,0,0,169.892578125,0.07305090338498549,0.0,False,,False,,,,,31
1302.7730000000001,2.806238011000005,-0.968017578125,0.23291015625,-0.017578125,-0.24427480916030533,0.732824427480916,0.12213740458015267,7732,0,0,169.892578125,0.07305090338498549,0.0,False,,False,,,,,31
1302.778,2.8082399220002117,-0.96826171875,0.23583984375,-0.016845703125,-0.3969465648854962,0.7938931297709924,0.2748091603053435,7732,-4,2,169.892578125,0.021510789374978787,0.002628,False,,False,,,,,31
1302.778,2.810240684999826,-0.96826171875,0.23583984375,-0.016845703125,-0.3969465648854962,0.7938931297709924,0.2748091603053435,7732,-4,2,169.892578125,0.021510789374978787,0.002628,False,,False,,,,,31
1302.778,2.8122417810000115,-0.96826171875,0.23583984375,-0.016845703125,-0.3969465648854962,0.7938931297709924,0.2748091603053435,7732,-4,2,169.892578125,0.021510789374978787,0.002628,False,,False,,,,,31
1302.7830000000001,2.8142437659998905,-0.970458984375,0.237060546875,-0.0205078125,-0.24427480916030533,0.549618320610687,0.2748091603053435,7733,4,3,169.91455078125,-0.006033676696291967,0.003942,False,,False,,,,,31
1302.7830000000001,2.816245176999928,-0.970458984375,0.237060546875,-0.0205078125,-0.24427480916030533,0.549618320610687,0.2748091603053435,7733,4,3,169.91455078125,-0.006033676696291967,0.003942,False,,False,,,,,31
1302.788,2.8182468850000078,-0.97119140625,0.23486328125,-0.01708984375,-0.366412213740458,0.549618320610687,0.3053435114503817,7733,5,-1,169.91455078125,0.0028251951257358687,-0.001314,False,,False,,,,,31
1302.788,2.8202480370000558,-0.97119140625,0.23486328125,-0.01708984375,-0.366412213740458,0.549618320610687,0.3053435114503817,7733,5,-1,169.91455078125,0.0028251951257358687,-0.001314,False,,False,,,,,31
1302.788,2.82224965100022,-0.97119140625,0.23486328125,-0.01708984375,-0.366412213740458,0.549618320610687,0.3053435114503817,7733,5,-1,169.91455078125,0.0028251951257358687,-0.001314,False,,False,,,,,31
1302.7930000000001,2.8242509699998664,-0.966064453125,0.23583984375,-0.017333984375,-0.3053435114503817,0.732824427480916,0.24427480916030533,7732,0,-4,169.892578125,0.010200752238114806,-0.005256,False,,False,,,,,31
1302.7930000000001,2.826251769999999,-0.966064453125,0.23583984375,-0.017333984375,-0.3053435114503817,0.732824427480916,0.24427480916030533,7732,0,-4,169.892578125,0.010200752238114806,-0.005256,False,,False,,,,,31
1302.798,2.828253236999899,-0.966552734375,0.23486328125,-0.01611328125,-0.33587786259541985,0.4580152671755725,0.2748091603053435,7733,3,1,169.91455078125,0.0003120652232826218,0.001314,False,,False,,,,,31
1302.798,2.8302547220000633,-0.966552734375,0.23486328125,-0.01611328125,-0.33587786259541985,0.4580152671755725,0.2748091603053435,7733,3,1,169.91455078125,0.0003120652232826218,0.001314,False,,False,,,,,31
1302.798,2.8322565220000797,-0.966552734375,0.23486328125,-0.01611328125,-0.33587786259541985,0.4580152671755725,0.2748091603053435,7733,3,1,169.91455078125,0.0003120652232826218,0.001314,False,,False,,,,,31
1302.803,2.8342579139998634,-0.9677734375,0.23388671875,-0.015869140625,-0.3053435114503817,0.6412213740458015,0.3969465648854962,7731,-8,2,169.87060546875,-0.023886675497057374,0.002628,False,,False,,,,,31
1302.803,2.8362590659999114,-0.9677734375,0.23388671875,-0.015869140625,-0.3053435114503817,0.6412213740458015,0.3969465648854962,7731,-8,2,169.87060546875,-0.023886675497057374,0.002628,False,,False,,,,,31
1302.808,2.838260013999843,-0.9677734375,0.233642578125,-0.0185546875,-0.3969465648854962,0.5801526717557252,0.366412213740458,7732,-5,3,169.892578125,-0.075630562674885,0.003942,False,,False,,,,,31
1302.808,2.840262017999976,-0.9677734375,0.233642578125,-0.0185546875,-0.3969465648854962,0.5801526717557252,0.366412213740458,7732,-5,3,169.892578125,-0.075630562674885,0.003942,False,,False,,,,,31
1302.808,2.842262928999844,-0.9677734375,0.233642578125,-0.0185546875,-0.3969465648854962,0.5801526717557252,0.366412213740458,7732,-5,3,169.892578125,-0.075630562674885,0.003942,False,,False,,,,,31
1302.813,2.8442649140001777,-0.96630859375,0.233642578125,-0.015380859375,-0.3969465648854962,0.5190839694656488,0.24427480916030533,7733,2,-2,169.91455078125,-0.10193836374560955,-0.002628,False,,False,,,,,31
1302.813,2.846266122000088,-0.96630859375,0.233642578125,-0.015380859375,-0.3969465648854962,0.5190839694656488,0.24427480916030533,7733,2,-2,169.91455078125,-0.10193836374560955,-0.002628,False,,False,,,,,31
1302.818,2.848266922000221,-0.966796875,0.236328125,-0.016845703125,-0.2748091603053435,0.7022900763358778,0.21374045801526717,7732,-3,-1,169.892578125,-0.09065483374724781,-0.001314,False,,False,,,,,31
1302.818,2.8502685739999833,-0.966796875,0.236328125,-0.016845703125,-0.2748091603053435,0.7022900763358778,0.21374045801526717,7732,-3,-1,169.892578125,-0.09065483374724781,-0.001314,False,,False,,,,,31
1302.818,2.852269910999894,-0.966796875,0.236328125,-0.016845703125,-0.2748091603053435,0.7022900763358778,0.21374045801526717,7732,-3,-1,169.892578125,-0.09065483374724781,-0.001314,False,,False,,,,,31
1302.823,2.854271802999847,-0.967529296875,0.23876953125,-0.018310546875,-0.2748091603053435,0.6717557251908397,0.3053435114503817,7732,0,-1,169.892578125,-0.09581077032473848,-0.001314,False,,False,,,,,31
1302.823,2.8562733439998738,-0.967529296875,0.23876953125,-0.018310546875,-0.2748091603053435,0.6717557251908397,0.3053435114503817,7732,0,-1,169.892578125,-0.09581077032473848,-0.001314,False,,False,,,,,31
1302.828,2.8582748849999007,-0.967529296875,0.24072265625,-0.018310546875,-0.3969465648854962,0.8549618320610687,0.15267175572519084,7733,2,0,169.91455078125,-0.09873924143918872,0.0,False,,False,,,,,31
1302.828,2.8602758890001496,-0.967529296875,0.24072265625,-0.018310546875,-0.3969465648854962,0.8549618320610687,0.15267175572519084,7733,2,0,169.91455078125,-0.09873924143918872,0.0,False,,False,,,,,31
1302.828,2.8622772809999333,-0.967529296875,0.24072265625,-0.018310546875,-0.3969465648854962,0.8549618320610687,0.15267175572519084,7733,2,0,169.91455078125,-0.09873924143918872,0.0,False,,False,,,,,31
1302.833,2.8642785440001717,-0.96630859375,0.236328125,-0.020263671875,-0.2748091603053435,0.7633587786259541,0.24427480916030533,7732,4,4,169.892578125,-0.08384490278436484,0.005256,False,,False,,,,,31
1302.833,2.866280195999934,-0.96630859375,0.236328125,-0.020263671875,-0.2748091603053435,0.7633587786259541,0.24427480916030533,7732,4,4,169.892578125,-0.08384490278436484,0.005256,False,,False,,,,,31
1302.838,2.8682818480001515,-0.96337890625,0.23779296875,-0.020751953125,-0.15267175572519084,0.916030534351145,0.33587786259541985,7732,1,-3,169.892578125,-0.08607659021064258,-0.003942,False,,False,,,,,31
1302.838,2.870283554999787,-0.96337890625,0.23779296875,-0.020751953125,-0.15267175572519084,0.916030534351145,0.33587786259541985,7732,1,-3,169.892578125,-0.08607659021064258,-0.003942,False,,False,,,,,31
1302.838,2.872284948000015,-0.96337890625,0.23779296875,-0.020751953125,-0.15267175572519084,0.916030534351145,0.33587786259541985,7732,1,-3,169.892578125,-0.08607659021064258,-0.003942,False,,False,,,,,31
1302.843,2.874286636999841,-0.96337890625,0.237060546875,-0.01904296875,-0.3969465648854962,0.732824427480916,0.24427480916030533,7731,-2,0,169.87060546875,-0.1185291351818329,0.0,False,,False,,,,,31
1302.843,2.8762878259999525,-0.96337890625,0.237060546875,-0.01904296875,-0.3969465648854962,0.732824427480916,0.24427480916030533,7731,-2,0,169.87060546875,-0.1185291351818329,0.0,False,,False,,,,,31
1302.848,2.8782893480001803,-0.963134765625,0.238525390625,-0.02099609375,-0.2748091603053435,0.8549618320610687,0.3053435114503817,7733,0,0,169.91455078125,-0.14398071125535272,0.0,False,,False,,,,,31
1302.848,2.8802904260001014,-0.963134765625,0.238525390625,-0.02099609375,-0.2748091603053435,0.8549618320610687,0.3053435114503817,7733,0,0,169.91455078125,-0.14398071125535272,0.0,False,,False,,,,,31
1302.848,2.8822920960001284,-0.963134765625,0.238525390625,-0.02099609375,-0.2748091603053435,0.8549618320610687,0.3053435114503817,7733,0,0,169.91455078125,-0.14398071125535272,0.0,False,,False,,,,,31
1302.853,2.884293118000187,-0.96533203125,0.23828125,-0.019775390625,-0.3969465648854962,1.0381679389312977,0.3053435114503817,7732,-1,-3,169.892578125,-0.13137130942580844,-0.003942,False,,False,,,,,31
1302.853,2.8862950849998015,-0.96533203125,0.23828125,-0.019775390625,-0.3969465648854962,1.0381679389312977,0.3053435114503817,7732,-1,-3,169.892578125,-0.13137130942580844,-0.003942,False,,False,,,,,31
1302.858,2.8882965890002197,-0.96533203125,0.240478515625,-0.019775390625,-0.15267175572519084,0.9465648854961831,0.2748091603053435,7733,0,5,169.91455078125,-0.10299621681231705,0.0065699999999999995,False,,False,,,,,31
1302.858,2.8902980920001937,-0.96533203125,0.240478515625,-0.019775390625,-0.15267175572519084,0.9465648854961831,0.2748091603053435,7733,0,5,169.91455078125,-0.10299621681231705,0.0065699999999999995,False,,False,,,,,31
1302.858,2.89229941099984,-0.96533203125,0.240478515625,-0.019775390625,-0.15267175572519084,0.9465648854961831,0.2748091603053435,7733,0,5,169.91455078125,-0.10299621681231705,0.0065699999999999995,False,,False,,,,,31
1302.863,2.8943022290000044,-0.962646484375,0.23974609375,-0.01953125,-0.2748091603053435,0.9465648854961831,0.33587786259541985,7733,7,5,169.91455078125,-0.06183343934946339,0.0065699999999999995,False,,False,,,,,31
1302.863,2.8963023070000418,-0.962646484375,0.23974609375,-0.01953125,-0.2748091603053435,0.9465648854961831,0.33587786259541985,7733,7,5,169.91455078125,-0.06183343934946339,0.0065699999999999995,False,,False,,,,,31
1302.868,2.8983035699998254,-0.966064453125,0.23828125,-0.020263671875,-0.21374045801526717,0.7938931297709924,0.3053435114503817,7732,7,2,169.892578125,-0.026476953245641713,0.002628,False,,False,,,,,31
1302.868,2.9003059070000745,-0.966064453125,0.23828125,-0.020263671875,-0.21374045801526717,0.7938931297709924,0.3053435114503817,7732,7,2,169.892578125,-0.026476953245641713,0.002628,False,,False,,,,,31
1302.868,2.902306578000207,-0.966064453125,0.23828125,-0.020263671875,-0.21374045801526717,0.7938931297709924,0.3053435114503817,7732,7,2,169.892578125,-0.026476953245641713,0.002628,False,,False,,,,,31
1302.873,2.9043086000001495,-0.967041015625,0.240234375,-0.018310546875,-0.15267175572519084,0.9465648854961831,0.0916030534351145,7733,0,2,169.91455078125,-0.01240918005406955,0.002628,False,,False,,,,,31
1302.873,2.9063101410001764,-0.967041015625,0.240234375,-0.018310546875,-0.15267175572519084,0.9465648854961831,0.0916030534351145,7733,0,2,169.91455078125,-0.01240918005406955,0.002628,False,,False,,,,,31
1302.878,2.908311625999886,-0.966796875,0.242919921875,-0.019287109375,-0.0916030534351145,0.9465648854961831,0.030534351145038167,7733,4,-1,169.91455078125,0.015463462521845116,-0.001314,False,,False,,,,,31
1302.878,2.910317500000019,-0.966796875,0.242919921875,-0.019287109375,-0.0916030534351145,0.9465648854961831,0.030534351145038167,7733,4,-1,169.91455078125,0.015463462521845116,-0.001314,False,,False,,,,,31
1302.878,2.9123145039998235,-0.966796875,0.242919921875,-0.019287109375,-0.0916030534351145,0.9465648854961831,0.030534351145038167,7733,4,-1,169.91455078125,0.015463462521845116,-0.001314,False,,False,,,,,31
1302.883,2.914315821999935,-0.963134765625,0.240966796875,-0.01611328125,-0.0916030534351145,0.6412213740458015,0.183206106870229,7733,-3,-2,169.91455078125,0.054489505107483495,-0.002628,False,,False,,,,,31
1302.883,2.916317288999835,-0.963134765625,0.240966796875,-0.01611328125,-0.0916030534351145,0.6412213740458015,0.183206106870229,7733,-3,-2,169.91455078125,0.054489505107483495,-0.002628,False,,False,,,,,31
1302.888,2.91831827399983,-0.960693359375,0.239501953125,-0.019775390625,-0.030534351145038167,0.6106870229007634,0.15267175572519084,7733,7,0,169.91455078125,0.08637201734769456,0.0,False,,False,,,,,31
1302.888,2.9203196110001954,-0.960693359375,0.239501953125,-0.019775390625,-0.030534351145038167,0.6106870229007634,0.15267175572519084,7733,7,0,169.91455078125,0.08637201734769456,0.0,False,,False,,,,,31
1302.888,2.9223208919997887,-0.960693359375,0.239501953125,-0.019775390625,-0.030534351145038167,0.6106870229007634,0.15267175572519084,7733,7,0,169.91455078125,0.08637201734769456,0.0,False,,False,,,,,31
1302.893,2.9243224329998156,-0.960693359375,0.23974609375,-0.018310546875,-0.0916030534351145,0.6717557251908397,0.3969465648854962,7733,0,-7,169.91455078125,0.11181222383660384,-0.009198,False,,False,,,,,31
1302.893,2.9263233440001386,-0.960693359375,0.23974609375,-0.018310546875,-0.0916030534351145,0.6717557251908397,0.3969465648854962,7733,0,-7,169.91455078125,0.11181222383660384,-0.009198,False,,False,,,,,31
1302.8980000000001,2.9283244960001866,-0.960205078125,0.2412109375,-0.020263671875,-0.030534351145038167,0.6106870229007634,0.2748091603053435,7734,5,1,169.9365234375,0.1474060974509886,0.001314,False,,False,,,,,31
1302.8980000000001,2.930326462999801,-0.960205078125,0.2412109375,-0.020263671875,-0.030534351145038167,0.6106870229007634,0.2748091603053435,7734,5,1,169.9365234375,0.1474060974509886,0.001314,False,,False,,,,,31
1302.8980000000001,2.9323275779997857,-0.960205078125,0.2412109375,-0.020263671875,-0.030534351145038167,0.6106870229007634,0.2748091603053435,7734,5,1,169.9365234375,0.1474060974509886,0.001314,False,,False,,,,,31
1302.903,2.9343295630001194,-0.9599609375,0.239990234375,-0.019775390625,-0.0916030534351145,0.5801526717557252,0.2748091603053435,7732,-4,4,169.892578125,0.17506920358332584,0.005256,False,,False,,,,,31
1302.903,2.9363308440001674,-0.9599609375,0.239990234375,-0.019775390625,-0.0916030534351145,0.5801526717557252,0.2748091603053435,7732,-4,4,169.892578125,0.17506920358332584,0.005256,False,,False,,,,,31
1302.9080000000001,2.938332441000057,-0.960693359375,0.242431640625,-0.019775390625,0.0,0.5801526717557252,0.24427480916030533,7733,-1,0,169.91455078125,0.16386088366825977,0.0,False,,False,,,,,31
1302.9080000000001,2.940333573999851,-0.960693359375,0.242431640625,-0.019775390625,0.0,0.5801526717557252,0.24427480916030533,7733,-1,0,169.91455078125,0.16386088366825977,0.0,False,,False,,,,,31
1302.9080000000001,2.942335985000227,-0.960693359375,0.242431640625,-0.019775390625,0.0,0.5801526717557252,0.24427480916030533,7733,-1,0,169.91455078125,0.16386088366825977,0.0,False,,False,,,,,31
1302.913,2.9443373220001376,-0.966796875,0.24169921875,-0.01953125,-0.061068702290076333,0.6106870229007634,0.24427480916030533,7732,3,-3,169.892578125,0.13618808356362902,-0.003942,False,,False,,,,,31
1302.913,2.9463392329998896,-0.966796875,0.24169921875,-0.01953125,-0.061068702290076333,0.6106870229007634,0.24427480916030533,7732,3,-3,169.892578125,0.13618808356362902,-0.003942,False,,False,,,,,31
1302.9180000000001,2.9483402179998848,-0.964111328125,0.24267578125,-0.02001953125,-0.183206106870229,0.732824427480916,0.2748091603053435,7733,6,-4,169.91455078125,0.11104800361652509,-0.005256,False,,False,,,,,31
1302.9180000000001,2.950342110999827,-0.964111328125,0.24267578125,-0.02001953125,-0.183206106870229,0.732824427480916,0.2748091603053435,7733,6,-4,169.91455078125,0.11104800361652509,-0.005256,False,,False,,,,,31
1302.9180000000001,2.9523436889999175,-0.964111328125,0.24267578125,-0.02001953125,-0.183206106870229,0.732824427480916,0.2748091603053435,7733,6,-4,169.91455078125,0.11104800361652509,-0.005256,False,,False,,,,,31
1302.923,2.95434606300023,-0.966552734375,0.24267578125,-0.01806640625,0.061068702290076333,0.7938931297709924,0.2748091603053435,7733,0,0,169.91455078125,0.1043080605596595,0.0,False,,False,,,,,31
1302.923,2.956346844000109,-0.966552734375,0.24267578125,-0.01806640625,0.061068702290076333,0.7938931297709924,0.2748091603053435,7733,0,0,169.91455078125,0.1043080605596595,0.0,False,,False,,,,,31
1302.928,2.958348978000231,-0.967041015625,0.245849609375,-0.0185546875,0.0916030534351145,0.7633587786259541,0.3969465648854962,7732,-1,-2,169.892578125,0.09715442160279328,-0.002628,False,,False,,,,,31
1302.928,2.9603498330002367,-0.967041015625,0.245849609375,-0.0185546875,0.0916030534351145,0.7633587786259541,0.3969465648854962,7732,-1,-2,169.892578125,0.09715442160279328,-0.002628,False,,False,,,,,31
1302.928,2.962351799999851,-0.967041015625,0.245849609375,-0.0185546875,0.0916030534351145,0.7633587786259541,0.3969465648854962,7732,-1,-2,169.892578125,0.09715442160279328,-0.002628,False,,False,,,,,31
1302.933,2.964353396000206,-0.96728515625,0.249267578125,-0.01953125,0.0,0.7938931297709924,0.4580152671755725,7733,2,0,169.91455078125,0.07384248424331481,0.0,False,,False,,,,,31
1302.933,2.9663546779997887,-0.96728515625,0.249267578125,-0.01953125,0.0,0.7938931297709924,0.4580152671755725,7733,2,0,169.91455078125,0.07384248424331481,0.0,False,,False,,,,,31
1302.938,2.9683559589998367,-0.969970703125,0.246826171875,-0.017822265625,0.0,0.8854961832061068,0.5190839694656488,7732,-6,-6,169.892578125,0.05325642219137548,-0.007884,False,,False,,,,,31
1302.938,2.970356704000096,-0.969970703125,0.246826171875,-0.017822265625,0.0,0.8854961832061068,0.5190839694656488,7732,-6,-6,169.892578125,0.05325642219137548,-0.007884,False,,False,,,,,31
1302.938,2.9723587260000386,-0.969970703125,0.246826171875,-0.017822265625,0.0,0.8854961832061068,0.5190839694656488,7732,-6,-6,169.892578125,0.05325642219137548,-0.007884,False,,False,,,,,31
1302.943,2.974360304000129,-0.9716796875,0.24365234375,-0.01904296875,0.0,0.8549618320610687,0.6412213740458015,7733,1,-7,169.91455078125,0.03525063757211452,-0.009198,False,,False,,,,,31
1302.943,2.9763613810000606,-0.9716796875,0.24365234375,-0.01904296875,0.0,0.8549618320610687,0.6412213740458015,7733,1,-7,169.91455078125,0.03525063757211452,-0.009198,False,,False,,,,,31
1302.948,2.978362663000098,-0.972900390625,0.24658203125,-0.0185546875,0.2748091603053435,0.8854961832061068,0.48854961832061067,7732,2,-7,169.892578125,0.019665858743911333,-0.009198,False,,False,,,,,31
1302.948,2.9803637959998923,-0.972900390625,0.24658203125,-0.0185546875,0.2748091603053435,0.8854961832061068,0.48854961832061067,7732,2,-7,169.892578125,0.019665858743911333,-0.009198,False,,False,,,,,31
1302.948,2.9823651520000567,-0.972900390625,0.24658203125,-0.0185546875,0.2748091603053435,0.8854961832061068,0.48854961832061067,7732,2,-7,169.892578125,0.019665858743911333,-0.009198,False,,False,,,,,31
1302.953,2.9843665070002316,-0.972900390625,0.25048828125,-0.017578125,0.42748091603053434,0.8244274809160305,0.5190839694656488,7731,-7,-2,169.87060546875,-0.0254975112274035,-0.002628,False,,False,,,,,31
1302.953,2.9863674560001527,-0.972900390625,0.25048828125,-0.017578125,0.42748091603053434,0.8244274809160305,0.5190839694656488,7731,-7,-2,169.87060546875,-0.0254975112274035,-0.002628,False,,False,,,,,31
1302.958,2.9883689220000633,-0.9716796875,0.252197265625,-0.01611328125,0.366412213740458,0.8244274809160305,0.3969465648854962,7733,5,0,169.91455078125,-0.07885367301192098,0.0,False,,False,,,,,31
1302.958,2.9903704439998364,-0.9716796875,0.252197265625,-0.01611328125,0.366412213740458,0.8244274809160305,0.3969465648854962,7733,5,0,169.91455078125,-0.07885367301192098,0.0,False,,False,,,,,31
1302.958,2.9923717629999373,-0.9716796875,0.252197265625,-0.01611328125,0.366412213740458,0.8244274809160305,0.3969465648854962,7733,5,0,169.91455078125,-0.07885367301192098,0.0,False,,False,,,,,31
1302.963,2.994373507000091,-0.970458984375,0.24755859375,-0.016845703125,0.7022900763358778,0.7022900763358778,0.366412213740458,7733,3,0,169.91455078125,-0.074633363296703,0.0,False,,False,,,,,31
1302.963,2.9963741780002238,-0.970458984375,0.24755859375,-0.016845703125,0.7022900763358778,0.7022900763358778,0.366412213740458,7733,3,0,169.91455078125,-0.074633363296703,0.0,False,,False,,,,,31
1302.968,2.998375774000124,-0.96630859375,0.249267578125,-0.015625,0.8854961832061068,0.6412213740458015,0.183206106870229,7732,-2,0,169.892578125,-0.054103411756956626,0.0,False,,False,,,,,31
1302.968,3.0003766670001824,-0.96630859375,0.249267578125,-0.015625,0.8854961832061068,0.6412213740458015,0.183206106870229,7732,-2,0,169.892578125,-0.054103411756956626,0.0,False,,False,,,,,31
1302.968,3.0023782630000824,-0.96630859375,0.249267578125,-0.015625,0.8854961832061068,0.6412213740458015,0.183206106870229,7732,-2,0,169.892578125,-0.054103411756956626,0.0,False,,False,,,,,31
1302.973,3.004384711000057,-0.96435546875,0.25244140625,-0.015625,0.8244274809160305,0.7022900763358778,0.15267175572519084,7733,2,5,169.91455078125,-0.05204792431551676,0.0065699999999999995,False,,False,,,,,31
1302.973,3.0063815110001997,-0.96435546875,0.25244140625,-0.015625,0.8244274809160305,0.7022900763358778,0.15267175572519084,7733,2,5,169.91455078125,-0.05204792431551676,0.0065699999999999995,False,,False,,,,,31
1302.978,3.0083826449999833,-0.96484375,0.248779296875,-0.01611328125,0.9465648854961831,0.7022900763358778,0.061068702290076333,7733,12,1,169.91455078125,-0.0336575113276191,0.001314,False,,False,,,,,31
1302.978,3.010383796000042,-0.96484375,0.248779296875,-0.01611328125,0.9465648854961831,0.7022900763358778,0.061068702290076333,7733,12,1,169.91455078125,-0.0336575113276191,0.001314,False,,False,,,,,31
1302.978,3.0123888930002067,-0.96484375,0.248779296875,-0.01611328125,0.9465648854961831,0.7022900763358778,0.061068702290076333,7733,12,1,169.91455078125,-0.0336575113276191,0.001314,False,,False,,,,,31
1302.983,3.014386915000159,-0.96142578125,0.249755859375,-0.015625,0.9770992366412213,0.42748091603053434,0.15267175572519084,7731,-11,0,169.87060546875,-0.033689400463953384,0.0,False,,False,,,,,31
1302.983,3.016387492999911,-0.96142578125,0.249755859375,-0.015625,0.9770992366412213,0.42748091603053434,0.15267175572519084,7731,-11,0,169.87060546875,-0.033689400463953384,0.0,False,,False,,,,,31
1302.988,3.018388699999832,-0.955810546875,0.251708984375,-0.01806640625,1.0381679389312977,0.7633587786259541,0.33587786259541985,7732,0,-2,169.892578125,-0.08097482613468612,-0.002628,False,,False,,,,,31
1302.988,3.0203905739999755,-0.955810546875,0.251708984375,-0.01806640625,1.0381679389312977,0.7633587786259541,0.33587786259541985,7732,0,-2,169.892578125,-0.08097482613468612,-0.002628,False,,False,,,,,31
1302.988,3.0223920409998755,-0.955810546875,0.251708984375,-0.01806640625,1.0381679389312977,0.7633587786259541,0.33587786259541985,7732,0,-2,169.892578125,-0.08097482613468612,-0.002628,False,,False,,,,,31
1302.993,3.024393137000061,-0.95556640625,0.257080078125,-0.020751953125,1.0687022900763359,0.6717557251908397,0.33587786259541985,7732,-3,-1,169.892578125,-0.11938825675555538,-0.001314,False,,False,,,,,31
1302.993,3.0263951410001937,-0.95556640625,0.257080078125,-0.020751953125,1.0687022900763359,0.6717557251908397,0.33587786259541985,7732,-3,-1,169.892578125,-0.11938825675555538,-0.001314,False,,False,,,,,31
1302.998,3.02839694100021,-0.955810546875,0.253662109375,-0.0224609375,1.0687022900763359,0.7633587786259541,0.5801526717557252,7732,-3,-1,169.892578125,-0.1339021384682249,-0.001314,False,,False,,,,,31
1302.998,3.0303977960002157,-0.955810546875,0.253662109375,-0.0224609375,1.0687022900763359,0.7633587786259541,0.5801526717557252,7732,-3,-1,169.892578125,-0.1339021384682249,-0.001314,False,,False,,,,,31
1302.998,3.032398652000211,-0.955810546875,0.253662109375,-0.0224609375,1.0687022900763359,0.7633587786259541,0.5801526717557252,7732,-3,-1,169.892578125,-0.1339021384682249,-0.001314,False,,False,,,,,31
1303.003,3.034401063000132,-0.954345703125,0.258544921875,-0.01904296875,0.7633587786259541,0.7633587786259541,0.8549618320610687,7732,-3,3,169.892578125,-0.14411309032777303,0.003942,False,,False,,,,,31
1303.003,3.036401473999831,-0.954345703125,0.258544921875,-0.01904296875,0.7633587786259541,0.7633587786259541,0.8549618320610687,7732,-3,3,169.892578125,-0.14411309032777303,0.003942,False,,False,,,,,31
1303.008,3.0384029589999955,-0.9541015625,0.2529296875,-0.02294921875,0.5801526717557252,0.9465648854961831,1.3740458015267174,7733,1,2,169.91455078125,-0.13465819241069407,0.002628,False,,False,,,,,31
1303.008,3.0404039629997897,-0.9541015625,0.2529296875,-0.02294921875,0.5801526717557252,0.9465648854961831,1.3740458015267174,7733,1,2,169.91455078125,-0.13465819241069407,0.002628,False,,False,,,,,31
1303.008,3.0424050219999117,-0.9541015625,0.2529296875,-0.02294921875,0.5801526717557252,0.9465648854961831,1.3740458015267174,7733,1,2,169.91455078125,-0.13465819241069407,0.002628,False,,False,,,,,31
1303.013,3.0444068779997906,-0.962158203125,0.258056640625,-0.025146484375,1.3435114503816794,0.916030534351145,1.1908396946564885,7732,5,0,169.892578125,-0.10887637642103663,0.0,False,,False,,,,,31
1303.013,3.0464085479998175,-0.962158203125,0.258056640625,-0.025146484375,1.3435114503816794,0.916030534351145,1.1908396946564885,7732,5,0,169.892578125,-0.10887637642103663,0.0,False,,False,,,,,31
1303.018,3.0484223670000574,-0.965087890625,0.25146484375,-0.02587890625,2.198473282442748,0.8244274809160305,0.8244274809160305,7733,0,-5,169.91455078125,-0.08571505090029788,-0.0065699999999999995,False,,False,,,,,31
1303.018,3.0504117969999243,-0.965087890625,0.25146484375,-0.02587890625,2.198473282442748,0.8244274809160305,0.8244274809160305,7733,0,-5,169.91455078125,-0.08571505090029788,-0.0065699999999999995,False,,False,,,,,31
1303.018,3.052412355999877,-0.965087890625,0.25146484375,-0.02587890625,2.198473282442748,0.8244274809160305,0.8244274809160305,7733,0,-5,169.91455078125,-0.08571505090029788,-0.0065699999999999995,False,,False,,,,,31
1303.0230000000001,3.0544139339999674,-0.97314453125,0.250244140625,-0.02197265625,2.5343511450381677,0.916030534351145,0.916030534351145,7733,5,4,169.91455078125,-0.049167491100150326,0.005256,False,,False,,,,,31
1303.0230000000001,3.0564151220000895,-0.97314453125,0.250244140625,-0.02197265625,2.5343511450381677,0.916030534351145,0.916030534351145,7733,5,4,169.91455078125,-0.049167491100150326,0.005256,False,,False,,,,,31
1303.028,3.058416182000201,-0.972900390625,0.242431640625,-0.014892578125,2.015267175572519,1.099236641221374,0.5801526717557252,7733,1,-2,169.91455078125,-0.0019426760681193755,-0.002628,False,,False,,,,,31
1303.028,3.0604178150001644,-0.972900390625,0.242431640625,-0.014892578125,2.015267175572519,1.099236641221374,0.5801526717557252,7733,1,-2,169.91455078125,-0.0019426760681193755,-0.002628,False,,False,,,,,31
1303.028,3.062419299999874,-0.972900390625,0.242431640625,-0.014892578125,2.015267175572519,1.099236641221374,0.5801526717557252,7733,1,-2,169.91455078125,-0.0019426760681193755,-0.002628,False,,False,,,,,31
1303.0330000000001,3.064421211000081,-0.972412109375,0.2509765625,-0.017333984375,1.7099236641221374,1.099236641221374,0.732824427480916,7732,1,-4,169.892578125,0.021705622982124296,-0.005256,False,,False,,,,,31
1303.0330000000001,3.0664217889998326,-0.972412109375,0.2509765625,-0.017333984375,1.7099236641221374,1.099236641221374,0.732824427480916,7732,1,-4,169.892578125,0.021705622982124296,-0.005256,False,,False,,,,,31
1303.038,3.0684234780001134,-0.978759765625,0.249267578125,-0.016357421875,2.045801526717557,1.1908396946564885,0.549618320610687,7732,-7,4,169.892578125,0.009357916427198337,0.005256,False,,False,,,,,31
1303.038,3.0704245370002354,-0.978759765625,0.249267578125,-0.016357421875,2.045801526717557,1.1908396946564885,0.549618320610687,7732,-7,4,169.892578125,0.009357916427198337,0.005256,False,,False,,,,,31
1303.038,3.072425892999945,-0.978759765625,0.249267578125,-0.016357421875,2.045801526717557,1.1908396946564885,0.549618320610687,7732,-7,4,169.892578125,0.009357916427198337,0.005256,False,,False,,,,,31
1303.0430000000001,3.074427286000173,-0.97705078125,0.253662109375,-0.01416015625,2.4122137404580153,1.129770992366412,0.5190839694656488,7733,1,1,169.91455078125,-0.0011149225074499197,0.001314,False,,False,,,,,31
1303.0430000000001,3.076428104000115,-0.97705078125,0.253662109375,-0.01416015625,2.4122137404580153,1.129770992366412,0.5190839694656488,7733,1,1,169.91455078125,-0.0011149225074499197,0.001314,False,,False,,,,,31
1303.048,3.0784293860001526,-0.979248046875,0.25390625,-0.016357421875,2.4122137404580153,1.1908396946564885,0.33587786259541985,7732,-2,0,169.892578125,0.006049153070676223,0.0,False,,False,,,,,31
1303.048,3.0804305930000737,-0.979248046875,0.25390625,-0.016357421875,2.4122137404580153,1.1908396946564885,0.33587786259541985,7732,-2,0,169.892578125,0.006049153070676223,0.0,False,,False,,,,,31
1303.048,3.0824325039998257,-0.979248046875,0.25390625,-0.016357421875,2.4122137404580153,1.1908396946564885,0.33587786259541985,7732,-2,0,169.892578125,0.006049153070676223,0.0,False,,False,,,,,31
1303.053,3.084433934000117,-0.982421875,0.256103515625,-0.0146484375,2.564885496183206,1.465648854961832,0.24427480916030533,7733,1,-1,169.91455078125,0.011959153268019131,-0.001314,False,,False,,,,,31
1303.053,3.0864353259999007,-0.982421875,0.256103515625,-0.0146484375,2.564885496183206,1.465648854961832,0.24427480916030533,7733,1,-1,169.91455078125,0.011959153268019131,-0.001314,False,,False,,,,,31
1303.058,3.0884374779998325,-0.982177734375,0.263427734375,-0.012451171875,2.595419847328244,1.3129770992366412,0.2748091603053435,7732,0,0,169.892578125,0.01673364801340664,0.0,False,,False,,,,,31
1303.058,3.0904379260000496,-0.982177734375,0.263427734375,-0.012451171875,2.595419847328244,1.3129770992366412,0.2748091603053435,7732,0,0,169.892578125,0.01673364801340664,0.0,False,,False,,,,,31
1303.058,3.0924630220001745,-0.982177734375,0.263427734375,-0.012451171875,2.595419847328244,1.3129770992366412,0.2748091603053435,7732,0,0,169.892578125,0.01673364801340664,0.0,False,,False,,,,,31
1303.063,3.0944418409999344,-0.978271484375,0.266845703125,-0.0146484375,3.0534351145038165,1.3129770992366412,0.21374045801526717,7732,-1,0,169.892578125,0.004572759037512079,0.0,False,,False,,,,,31
1303.063,3.0964431600000353,-0.978271484375,0.266845703125,-0.0146484375,3.0534351145038165,1.3129770992366412,0.21374045801526717,7732,-1,0,169.892578125,0.004572759037512079,0.0,False,,False,,,,,31
1303.068,3.098443886000041,-0.986328125,0.27587890625,-0.013427734375,3.633587786259542,1.4045801526717556,-0.030534351145038167,7732,0,0,169.892578125,-0.021589950978859622,0.0,False,,False,,,,,31
1303.068,3.1004452779998246,-0.986328125,0.27587890625,-0.013427734375,3.633587786259542,1.4045801526717556,-0.030534351145038167,7732,0,0,169.892578125,-0.021589950978859622,0.0,False,,False,,,,,31
1303.068,3.1024466519997986,-0.986328125,0.27587890625,-0.013427734375,3.633587786259542,1.4045801526717556,-0.030534351145038167,7732,0,0,169.892578125,-0.021589950978859622,0.0,False,,False,,,,,31
1303.073,3.1044478970002274,-0.985595703125,0.27978515625,-0.015380859375,3.7251908396946565,1.7404580152671756,-0.061068702290076333,7731,-3,4,169.87060546875,-0.05909571664077862,0.005256,False,,False,,,,,31
1303.073,3.1064498079999794,-0.985595703125,0.27978515625,-0.015380859375,3.7251908396946565,1.7404580152671756,-0.061068702290076333,7731,-3,4,169.87060546875,-0.05909571664077862,0.005256,False,,False,,,,,31
1303.078,3.108450162999816,-0.988525390625,0.284423828125,-0.015869140625,4.2748091603053435,1.7099236641221374,-0.21374045801526717,7732,1,0,169.892578125,-0.10555434460479801,0.0,False,,False,,,,,31
1303.078,3.110451593000107,-0.988525390625,0.284423828125,-0.015869140625,4.2748091603053435,1.7099236641221374,-0.21374045801526717,7732,1,0,169.892578125,-0.10555434460479801,0.0,False,,False,,,,,31
1303.078,3.1124523749999753,-0.988525390625,0.284423828125,-0.015869140625,4.2748091603053435,1.7099236641221374,-0.21374045801526717,7732,1,0,169.892578125,-0.10555434460479801,0.0,False,,False,,,,,31
1303.083,3.1144535819998964,-0.986328125,0.28466796875,-0.013916015625,4.580152671755725,1.5877862595419847,-0.24427480916030533,7732,0,0,169.892578125,-0.1270039260081012,0.0,False,,False,,,,,31
1303.083,3.1164551229999233,-0.986328125,0.28466796875,-0.013916015625,4.580152671755725,1.5877862595419847,-0.24427480916030533,7732,0,0,169.892578125,-0.1270039260081012,0.0,False,,False,,,,,31
1303.088,3.1184563860001617,-0.9853515625,0.286376953125,-0.012939453125,5.374045801526718,1.4351145038167938,-0.3969465648854962,7731,-2,0,169.87060546875,-0.14312125090148145,0.0,False,,False,,,,,31
1303.088,3.120457962999808,-0.9853515625,0.286376953125,-0.012939453125,5.374045801526718,1.4351145038167938,-0.3969465648854962,7731,-2,0,169.87060546875,-0.14312125090148145,0.0,False,,False,,,,,31
1303.088,3.122459114999856,-0.9853515625,0.286376953125,-0.012939453125,5.374045801526718,1.4351145038167938,-0.3969465648854962,7731,-2,0,169.87060546875,-0.14312125090148145,0.0,False,,False,,,,,31
1303.093,3.124460934000126,-0.9833984375,0.291748046875,-0.01025390625,5.6183206106870225,1.1908396946564885,-0.2748091603053435,7732,-2,-6,169.892578125,-0.17045661381041927,-0.007884,False,,False,,,,,31
1303.093,3.1264621780001107,-0.9833984375,0.291748046875,-0.01025390625,5.6183206106870225,1.1908396946564885,-0.2748091603053435,7732,-2,-6,169.892578125,-0.17045661381041927,-0.007884,False,,False,,,,,31
1303.098,3.1284637190001376,-0.9775390625,0.293701171875,-0.0107421875,5.770992366412213,1.282442748091603,-0.366412213740458,7732,-1,1,169.892578125,-0.17495632720503826,0.001314,False,,False,,,,,31
1303.098,3.1304647410001962,-0.9775390625,0.293701171875,-0.0107421875,5.770992366412213,1.282442748091603,-0.366412213740458,7732,-1,1,169.892578125,-0.17495632720503826,0.001314,False,,False,,,,,31
1303.098,3.1324662080000962,-0.9775390625,0.293701171875,-0.0107421875,5.770992366412213,1.282442748091603,-0.366412213740458,7732,-1,1,169.892578125,-0.17495632720503826,0.001314,False,,False,,,,,31
1303.103,3.134466988999975,-0.971435546875,0.290771484375,-0.006103515625,6.290076335877862,1.129770992366412,-0.48854961832061067,7732,0,-3,169.892578125,-0.1602732677157372,-0.003942,False,,False,,,,,31
1303.103,3.1365000480000162,-0.971435546875,0.290771484375,-0.006103515625,6.290076335877862,1.129770992366412,-0.48854961832061067,7732,0,-3,169.892578125,-0.1602732677157372,-0.003942,False,,False,,,,,31
1303.108,3.138474125999892,-0.9619140625,0.289306640625,-0.005615234375,7.541984732824427,0.5801526717557252,-0.7022900763358778,7731,-5,-1,169.87060546875,-0.16157463739817812,-0.001314,False,,False,,,,,31
1303.108,3.1404713339998125,-0.9619140625,0.289306640625,-0.005615234375,7.541984732824427,0.5801526717557252,-0.7022900763358778,7731,-5,-1,169.87060546875,-0.16157463739817812,-0.001314,False,,False,,,,,31
1303.108,3.1424729489999663,-0.9619140625,0.289306640625,-0.005615234375,7.541984732824427,0.5801526717557252,-0.7022900763358778,7731,-5,-1,169.87060546875,-0.16157463739817812,-0.001314,False,,False,,,,,31
1303.113,3.144474285999877,-0.962890625,0.287109375,-0.003662109375,7.603053435114504,0.4580152671755725,-0.7938931297709924,7733,3,0,169.91455078125,-0.16032343270908092,0.0,False,,False,,,,,31
1303.113,3.1464757710000413,-0.962890625,0.287109375,-0.003662109375,7.603053435114504,0.4580152671755725,-0.7938931297709924,7733,3,0,169.91455078125,-0.16032343270908092,0.0,False,,False,,,,,31
1303.118,3.1484768489999624,-0.957275390625,0.2861328125,-0.003662109375,7.694656488549618,0.549618320610687,-0.9465648854961831,7731,-1,-4,169.87060546875,-0.14103779285841114,-0.005256,False,,False,,,,,31
1303.118,3.1504784449998624,-0.957275390625,0.2861328125,-0.003662109375,7.694656488549618,0.549618320610687,-0.9465648854961831,7731,-1,-4,169.87060546875,-0.14103779285841114,-0.005256,False,,False,,,,,31
1303.118,3.152479912000217,-0.957275390625,0.2861328125,-0.003662109375,7.694656488549618,0.549618320610687,-0.9465648854961831,7731,-1,-4,169.87060546875,-0.14103779285841114,-0.005256,False,,False,,,,,31
1303.123,3.1544810270002017,-0.952880859375,0.2861328125,-0.005126953125,7.877862595419847,0.6717557251908397,-1.0076335877862594,7731,-1,4,169.87060546875,-0.15468021836549464,0.005256,False,,False,,,,,31
1303.123,3.1564825669997845,-0.952880859375,0.2861328125,-0.005126953125,7.877862595419847,0.6717557251908397,-1.0076335877862594,7731,-1,4,169.87060546875,-0.15468021836549464,0.005256,False,,False,,,,,31
1303.128,3.1584837750001498,-0.951416015625,0.28076171875,-0.010009765625,8.732824427480915,0.48854961832061067,-0.9770992366412213,7731,-9,-2,169.87060546875,-0.19569178191888953,-0.002628,False,,False,,,,,31
1303.128,3.160484982000071,-0.951416015625,0.28076171875,-0.010009765625,8.732824427480915,0.48854961832061067,-0.9770992366412213,7731,-9,-2,169.87060546875,-0.19569178191888953,-0.002628,False,,False,,,,,31
1303.128,3.1624869299998863,-0.951416015625,0.28076171875,-0.010009765625,8.732824427480915,0.48854961832061067,-0.9770992366412213,7731,-9,-2,169.87060546875,-0.19569178191888953,-0.002628,False,,False,,,,,31
1303.133,3.164488619000167,-0.949951171875,0.281982421875,-0.01025390625,9.038167938931297,0.6106870229007634,-0.9465648854961831,7730,-2,0,169.8486328125,-0.24310656977286949,0.0,False,,False,,,,,31
1303.133,3.1664896410002257,-0.949951171875,0.281982421875,-0.01025390625,9.038167938931297,0.6106870229007634,-0.9465648854961831,7730,-2,0,169.8486328125,-0.24310656977286949,0.0,False,,False,,,,,31
1303.138,3.1684911269999247,-0.948974609375,0.281982421875,-0.013916015625,9.34351145038168,0.3969465648854962,-0.916030534351145,7729,-1,-3,169.82666015625,-0.3270263196671873,-0.003942,False,,False,,,,,31
1303.138,3.1704926490001526,-0.948974609375,0.281982421875,-0.013916015625,9.34351145038168,0.3969465648854962,-0.916030534351145,7729,-1,-3,169.82666015625,-0.3270263196671873,-0.003942,False,,False,,,,,31
1303.138,3.1724942639998517,-0.948974609375,0.281982421875,-0.013916015625,9.34351145038168,0.3969465648854962,-0.916030534351145,7729,-1,-3,169.82666015625,-0.3270263196671873,-0.003942,False,,False,,,,,31
1303.143,3.1744949899998574,-0.9521484375,0.2802734375,-0.013427734375,9.31297709923664,0.5190839694656488,-0.7938931297709924,7729,0,0,169.82666015625,-0.4402916315344787,0.0,False,,False,,,,,31
1303.143,3.1764962530000957,-0.9521484375,0.2802734375,-0.013427734375,9.31297709923664,0.5190839694656488,-0.7938931297709924,7729,0,0,169.82666015625,-0.4402916315344787,0.0,False,,False,,,,,31
1303.1480000000001,3.1784977010001967,-0.951416015625,0.275146484375,-0.01416015625,9.893129770992367,0.3053435114503817,-0.5801526717557252,7729,0,0,169.82666015625,-0.5446524806964189,0.0,False,,False,,,,,31
1303.1480000000001,3.1805355930000587,-0.951416015625,0.275146484375,-0.01416015625,9.893129770992367,0.3053435114503817,-0.5801526717557252,7729,0,0,169.82666015625,-0.5446524806964189,0.0,False,,False,,,,,31
1303.1480000000001,3.182500486000208,-0.951416015625,0.275146484375,-0.01416015625,9.893129770992367,0.3053435114503817,-0.5801526717557252,7729,0,0,169.82666015625,-0.5446524806964189,0.0,False,,False,,,,,31
1303.153,3.1845017300001928,-0.952880859375,0.273193359375,-0.013671875,9.83206106870229,0.21374045801526717,-0.366412213740458,7727,-5,-2,169.78271484375,-0.6559624226292551,-0.002628,False,,False,,,,,31
1303.153,3.186503770999934,-0.952880859375,0.273193359375,-0.013671875,9.83206106870229,0.21374045801526717,-0.366412213740458,7727,-5,-2,169.78271484375,-0.6559624226292551,-0.002628,False,,False,,,,,31
1303.1580000000001,3.1885052560000986,-0.95361328125,0.26953125,-0.0146484375,10.13740458015267,0.183206106870229,-0.21374045801526717,7728,-4,-1,169.8046875,-0.7873930934822586,-0.001314,False,,False,,,,,31
1303.1580000000001,3.1905068709997977,-0.95361328125,0.26953125,-0.0146484375,10.13740458015267,0.183206106870229,-0.21374045801526717,7728,-4,-1,169.8046875,-0.7873930934822586,-0.001314,False,,False,,,,,31
1303.1580000000001,3.192509040999994,-0.95361328125,0.26953125,-0.0146484375,10.13740458015267,0.183206106870229,-0.21374045801526717,7728,-4,-1,169.8046875,-0.7873930934822586,-0.001314,False,,False,,,,,31
1303.163,3.194509989999915,-0.953125,0.266357421875,-0.01513671875,10.015267175572518,0.3053435114503817,0.0,7727,0,2,169.78271484375,-0.9019332840827992,0.002628,False,,False,,,,,31
1303.163,3.196511752999868,-0.953125,0.266357421875,-0.01513671875,10.015267175572518,0.3053435114503817,0.0,7727,0,2,169.78271484375,-0.9019332840827992,0.002628,False,,False,,,,,31
1303.1680000000001,3.198513126999842,-0.95361328125,0.2646484375,-0.01171875,9.862595419847327,0.24427480916030533,0.33587786259541985,7725,-8,-2,169.73876953125,-1.0325049473594021,-0.002628,False,,False,,,,,31
1303.1680000000001,3.2005147599998054,-0.95361328125,0.2646484375,-0.01171875,9.862595419847327,0.24427480916030533,0.33587786259541985,7725,-8,-2,169.73876953125,-1.0325049473594021,-0.002628,False,,False,,,,,31
1303.1680000000001,3.2025165599998218,-0.95361328125,0.2646484375,-0.01171875,9.862595419847327,0.24427480916030533,0.33587786259541985,7725,-8,-2,169.73876953125,-1.0325049473594021,-0.002628,False,,False,,,,,31
1303.173,3.204517229999965,-0.952392578125,0.265380859375,-0.014404296875,9.83206106870229,0.21374045801526717,0.5801526717557252,7724,-8,-2,169.716796875,-1.2223530872696289,-0.002628,False,,False,,,,,31
1303.173,3.2065195300001506,-0.952392578125,0.265380859375,-0.014404296875,9.83206106870229,0.21374045801526717,0.5801526717557252,7724,-8,-2,169.716796875,-1.2223530872696289,-0.002628,False,,False,,,,,31
1303.178,3.2085203299998284,-0.95263671875,0.26025390625,-0.01318359375,9.98473282442748,0.2748091603053435,0.5801526717557252,7723,-8,3,169.69482421875,-1.4431605351782524,0.003942,False,,False,,,,,31
1303.178,3.2105251670000143,-0.95263671875,0.26025390625,-0.01318359375,9.98473282442748,0.2748091603053435,0.5801526717557252,7723,-8,3,169.69482421875,-1.4431605351782524,0.003942,False,,False,,,,,31
1303.178,3.2125237449999986,-0.95263671875,0.26025390625,-0.01318359375,9.98473282442748,0.2748091603053435,0.5801526717557252,7723,-8,3,169.69482421875,-1.4431605351782524,0.003942,False,,False,,,,,31
1303.183,3.214525712000068,-0.951171875,0.260498046875,-0.010986328125,9.923664122137405,0.3053435114503817,0.7938931297709924,7724,-3,5,169.716796875,-1.6389409928838112,0.0065699999999999995,False,,False,,,,,31
1303.183,3.2165262710000206,-0.951171875,0.260498046875,-0.010986328125,9.923664122137405,0.3053435114503817,0.7938931297709924,7724,-3,5,169.716796875,-1.6389409928838112,0.0065699999999999995,False,,False,,,,,31
1303.188,3.218527922999783,-0.948974609375,0.25390625,-0.0078125,9.709923664122137,0.33587786259541985,0.8854961832061068,7724,2,0,169.716796875,-1.7631863179614649,0.0,False,,False,,,,,31
1303.188,3.2205283530001907,-0.948974609375,0.25390625,-0.0078125,9.709923664122137,0.33587786259541985,0.8854961832061068,7724,2,0,169.716796875,-1.7631863179614649,0.0,False,,False,,,,,31
1303.188,3.222529893000228,-0.948974609375,0.25390625,-0.0078125,9.709923664122137,0.33587786259541985,0.8854961832061068,7724,2,0,169.716796875,-1.7631863179614649,0.0,False,,False,,,,,31
1303.193,3.224531989999832,-0.952880859375,0.2568359375,-0.00927734375,9.49618320610687,0.48854961832061067,1.1908396946564885,7721,-5,0,169.65087890625,-1.873490612380827,0.0,False,,False,,,,,31
1303.193,3.22653327099988,-0.952880859375,0.2568359375,-0.00927734375,9.49618320610687,0.48854961832061067,1.1908396946564885,7721,-5,0,169.65087890625,-1.873490612380827,0.0,False,,False,,,,,31
1303.198,3.228534867000235,-0.94873046875,0.2548828125,-0.007568359375,9.099236641221374,0.6412213740458015,1.0381679389312977,7719,-4,-4,169.60693359375,-2.066019339207225,-0.005256,False,,False,,,,,31
1303.198,3.2305355749999762,-0.94873046875,0.2548828125,-0.007568359375,9.099236641221374,0.6412213740458015,1.0381679389312977,7719,-4,-4,169.60693359375,-2.066019339207225,-0.005256,False,,False,,,,,31
1303.198,3.2325373560001935,-0.94873046875,0.2548828125,-0.007568359375,9.099236641221374,0.6412213740458015,1.0381679389312977,7719,-4,-4,169.60693359375,-2.066019339207225,-0.005256,False,,False,,,,,31
1303.203,3.2345389160000195,-0.9443359375,0.25537109375,-0.00732421875,8.610687022900763,0.732824427480916,1.2519083969465647,7716,-21,-1,169.541015625,-2.3564269263946818,-0.001314,False,,False,,,,,31
1303.203,3.2365406789999724,-0.9443359375,0.25537109375,-0.00732421875,8.610687022900763,0.732824427480916,1.2519083969465647,7716,-21,-1,169.541015625,-2.3564269263946818,-0.001314,False,,False,,,,,31
1303.208,3.238542311999936,-0.943603515625,0.263671875,-0.002197265625,8.15267175572519,1.282442748091603,1.3740458015267174,7711,-24,-4,169.43115234375,-2.7723166221446816,-0.005256,False,,False,,,,,31
1303.208,3.2405433529997936,-0.943603515625,0.263671875,-0.002197265625,8.15267175572519,1.282442748091603,1.3740458015267174,7711,-24,-4,169.43115234375,-2.7723166221446816,-0.005256,False,,False,,,,,31
1303.208,3.2425445789999685,-0.943603515625,0.263671875,-0.002197265625,8.15267175572519,1.282442748091603,1.3740458015267174,7711,-24,-4,169.43115234375,-2.7723166221446816,-0.005256,False,,False,,,,,31
1303.213,3.2445458600000165,-0.938232421875,0.2763671875,0.000244140625,8.061068702290076,1.8015267175572518,2.1068702290076335,7703,-35,0,169.25537109375,-3.4145574974108204,0.0,False,,False,,,,,31
1303.213,3.246546882000075,-0.938232421875,0.2763671875,0.000244140625,8.061068702290076,1.8015267175572518,2.1068702290076335,7703,-35,0,169.25537109375,-3.4145574974108204,0.0,False,,False,,,,,31
1303.218,3.248548256000049,-0.91650390625,0.2880859375,0.0029296875,5.984732824427481,2.5038167938931295,3.9389312977099236,7687,-75,0,168.90380859375,-4.491640940800177,0.0,False,,False,,,,,31
1303.218,3.250549742000203,-0.91650390625,0.2880859375,0.0029296875,5.984732824427481,2.5038167938931295,3.9389312977099236,7687,-75,0,168.90380859375,-4.491640940800177,0.0,False,,False,,,,,31
1303.218,3.252550431000145,-0.91650390625,0.2880859375,0.0029296875,5.984732824427481,2.5038167938931295,3.9389312977099236,7687,-75,0,168.90380859375,-4.491640940800177,0.0,False,,False,,,,,31
1303.223,3.2545525270002145,-0.89794921875,0.3046875,0.00341796875,2.1068702290076335,2.931297709923664,6.748091603053435,7656,-141,1,168.22265625,-6.458293338850979,0.001314,False,,False,,,,,31
1303.223,3.2565533639999558,-0.89794921875,0.3046875,0.00341796875,2.1068702290076335,2.931297709923664,6.748091603053435,7656,-141,1,168.22265625,-6.458293338850979,0.001314,False,,False,,,,,31
1303.228,3.2585546079999403,-0.921630859375,0.331298828125,-0.0166015625,1.8625954198473282,2.8091603053435112,9.740458015267174,7620,-154,-2,167.431640625,-9.825556670308565,-0.002628,False,,False,,,,,31
1303.228,3.2605558529999144,-0.921630859375,0.331298828125,-0.0166015625,1.8625954198473282,2.8091603053435112,9.740458015267174,7620,-154,-2,167.431640625,-9.825556670308565,-0.002628,False,,False,,,,,31
1303.228,3.262557171000026,-0.921630859375,0.331298828125,-0.0166015625,1.8625954198473282,2.8091603053435112,9.740458015267174,7620,-154,-2,167.431640625,-9.825556670308565,-0.002628,False,,False,,,,,31
1303.233,3.26455937899982,-0.897216796875,0.296875,-0.031982421875,2.198473282442748,2.259541984732824,9.282442748091603,7578,-181,-2,166.5087890625,-14.809988524748265,-0.002628,False,,False,,,,,31
1303.233,3.2665604939998047,-0.897216796875,0.296875,-0.031982421875,2.198473282442748,2.259541984732824,9.282442748091603,7578,-181,-2,166.5087890625,-14.809988524748265,-0.002628,False,,False,,,,,31
1303.238,3.2685620709999057,-0.943115234375,0.3291015625,-0.01953125,4.061068702290076,2.16793893129771,10.229007633587786,7535,-185,3,165.56396484375,-21.36255676148874,0.003942,False,,False,,,,,31
1303.238,3.2705635379998057,-0.943115234375,0.3291015625,-0.01953125,4.061068702290076,2.16793893129771,10.229007633587786,7535,-185,3,165.56396484375,-21.36255676148874,0.003942,False,,False,,,,,31
1303.238,3.272565115999896,-0.943115234375,0.3291015625,-0.01953125,4.061068702290076,2.16793893129771,10.229007633587786,7535,-185,3,165.56396484375,-21.36255676148874,0.003942,False,,False,,,,,31
1303.243,3.2745667489998596,-0.906982421875,0.287353515625,-0.027099609375,3.2671755725190836,2.8091603053435112,10.412213740458014,7490,-198,0,164.5751953125,-29.29217066907289,0.0,False,,False,,,,,31
1303.243,3.2765675310001825,-0.906982421875,0.287353515625,-0.027099609375,3.2671755725190836,2.8091603053435112,10.412213740458014,7490,-198,0,164.5751953125,-29.29217066907289,0.0,False,,False,,,,,31
1303.248,3.2785688859999027,-0.91357421875,0.271728515625,-0.0244140625,1.8625954198473282,2.564885496183206,10.534351145038167,7441,-214,6,163.49853515625,-38.40298813414357,0.007884,False,,False,,,,,31
1303.248,3.2805703340000036,-0.91357421875,0.271728515625,-0.0244140625,1.8625954198473282,2.564885496183206,10.534351145038167,7441,-214,6,163.49853515625,-38.40298813414357,0.007884,False,,False,,,,,31
1303.248,3.2825715049998507,-0.91357421875,0.271728515625,-0.0244140625,1.8625954198473282,2.564885496183206,10.534351145038167,7441,-214,6,163.49853515625,-38.40298813414357,0.007884,False,,False,,,,,31
1303.253,3.2845727489998353,-0.95068359375,0.314208984375,-0.004150390625,2.8091603053435112,3.7251908396946565,11.450381679389313,7392,-216,9,162.421875,-48.529857553092214,0.011826,False,,False,,,,,31
1303.253,3.286574734000169,-0.95068359375,0.314208984375,-0.004150390625,2.8091603053435112,3.7251908396946565,11.450381679389313,7392,-216,9,162.421875,-48.529857553092214,0.011826,False,,False,,,,,31
1303.258,3.288575144999868,-0.939453125,0.298828125,-0.008056640625,4.061068702290076,2.4122137404580153,10.99236641221374,7342,-219,-1,161.3232421875,-59.440219804411164,-0.001314,False,,False,,,,,31
1303.258,3.290576890000011,-0.939453125,0.298828125,-0.008056640625,4.061068702290076,2.4122137404580153,10.99236641221374,7342,-219,-1,161.3232421875,-59.440219804411164,-0.001314,False,,False,,,,,31
1303.258,3.2925782829997843,-0.939453125,0.298828125,-0.008056640625,4.061068702290076,2.4122137404580153,10.99236641221374,7342,-219,-1,161.3232421875,-59.440219804411164,-0.001314,False,,False,,,,,31
1303.263,3.294579286000044,-0.925048828125,0.286865234375,-0.00634765625,2.9923664122137406,3.297709923664122,11.145038167938932,7293,-218,-1,160.24658203125,-70.86436804232859,-0.001314,False,,False,,,,,31
1303.263,3.2965804010000284,-0.925048828125,0.286865234375,-0.00634765625,2.9923664122137406,3.297709923664122,11.145038167938932,7293,-218,-1,160.24658203125,-70.86436804232859,-0.001314,False,,False,,,,,31
1303.268,3.2985818860001928,-0.947021484375,0.260498046875,-0.008544921875,6.717557251908397,1.984732824427481,8.458015267175572,7249,-190,-5,159.27978515625,-82.45765641934315,-0.0065699999999999995,False,,False,,,,,31
1303.268,3.30058316800023,-0.947021484375,0.260498046875,-0.008544921875,6.717557251908397,1.984732824427481,8.458015267175572,7249,-190,-5,159.27978515625,-82.45765641934315,-0.0065699999999999995,False,,False,,,,,31
1303.268,3.3025847640001302,-0.947021484375,0.260498046875,-0.008544921875,6.717557251908397,1.984732824427481,8.458015267175572,7249,-190,-5,159.27978515625,-82.45765641934315,-0.0065699999999999995,False,,False,,,,,31
1303.2730000000001,3.3045906379998087,-0.98193359375,0.302978515625,0.000244140625,9.374045801526718,1.4351145038167938,8.305343511450381,7215,-144,-2,158.53271484375,-93.69036957993056,-0.002628,False,,False,,,,,31
1303.2730000000001,3.306586771000184,-0.98193359375,0.302978515625,0.000244140625,9.374045801526718,1.4351145038167938,8.305343511450381,7215,-144,-2,158.53271484375,-93.69036957993056,-0.002628,False,,False,,,,,31
1303.278,3.3085887010001898,-0.946533203125,0.261962890625,-0.008544921875,9.282442748091603,-0.030534351145038167,6.870229007633587,7186,-124,-1,157.8955078125,-103.9810227691116,-0.001314,False,,False,,,,,31
1303.278,3.310589704999984,-0.946533203125,0.261962890625,-0.008544921875,9.282442748091603,-0.030534351145038167,6.870229007633587,7186,-124,-1,157.8955078125,-103.9810227691116,-0.001314,False,,False,,,,,31
1303.278,3.3125913379999474,-0.946533203125,0.261962890625,-0.008544921875,9.282442748091603,-0.030534351145038167,6.870229007633587,7186,-124,-1,157.8955078125,-103.9810227691116,-0.001314,False,,False,,,,,31
1303.2830000000001,3.3145922489998156,-0.992431640625,0.260498046875,0.00048828125,11.145038167938932,-0.5190839694656488,4.916030534351145,7170,-73,-2,157.5439453125,-112.80870820652194,-0.002628,False,,False,,,,,31
1303.2830000000001,3.3165938639999695,-0.992431640625,0.260498046875,0.00048828125,11.145038167938932,-0.5190839694656488,4.916030534351145,7170,-73,-2,157.5439453125,-112.80870820652194,-0.002628,False,,False,,,,,31
1303.288,3.3185949970002184,-0.961181640625,0.2841796875,0.00830078125,10.412213740458014,-0.21374045801526717,4.183206106870228,7154,-64,1,157.1923828125,-119.7903562546569,0.001314,False,,False,,,,,31
1303.288,3.3205967789999704,-0.961181640625,0.2841796875,0.00830078125,10.412213740458014,-0.21374045801526717,4.183206106870228,7154,-64,1,157.1923828125,-119.7903562546569,0.001314,False,,False,,,,,31
1303.288,3.3225984489999973,-0.961181640625,0.2841796875,0.00830078125,10.412213740458014,-0.21374045801526717,4.183206106870228,7154,-64,1,157.1923828125,-119.7903562546569,0.001314,False,,False,,,,,31
1303.2930000000001,3.3245993599998656,-0.966796875,0.28857421875,0.007568359375,9.435114503816793,-0.4580152671755725,3.9389312977099236,7135,-78,-4,156.77490234375,-124.96623852428434,-0.005256,False,,False,,,,,31
1303.2930000000001,3.3266010860002098,-0.966796875,0.28857421875,0.007568359375,9.435114503816793,-0.4580152671755725,3.9389312977099236,7135,-78,-4,156.77490234375,-124.96623852428434,-0.005256,False,,False,,,,,31
1303.298,3.328602164000131,-0.970703125,0.293701171875,-0.0068359375,11.236641221374045,-0.42748091603053434,3.0534351145038165,7126,-42,-8,156.5771484375,-128.49172285873854,-0.010512,False,,False,,,,,31
1303.298,3.3306032599998616,-0.970703125,0.293701171875,-0.0068359375,11.236641221374045,-0.42748091603053434,3.0534351145038165,7126,-42,-8,156.5771484375,-128.49172285873854,-0.010512,False,,False,,,,,31
1303.298,3.332605172000058,-0.970703125,0.293701171875,-0.0068359375,11.236641221374045,-0.42748091603053434,3.0534351145038165,7126,-42,-8,156.5771484375,-128.49172285873854,-0.010512,False,,False,,,,,31
1303.303,3.33460599,-0.970458984375,0.30126953125,-0.015380859375,14.229007633587786,-0.549618320610687,1.984732824427481,7121,-19,-4,156.46728515625,-130.25022415432312,-0.005256,False,,False,,,,,31
1303.303,3.3366067160000057,-0.970458984375,0.30126953125,-0.015380859375,14.229007633587786,-0.549618320610687,1.984732824427481,7121,-19,-4,156.46728515625,-130.25022415432312,-0.005256,False,,False,,,,,31
1303.308,3.338608830999874,-0.967529296875,0.2939453125,-0.01171875,17.00763358778626,-0.8549618320610687,1.7404580152671756,7121,1,0,156.46728515625,-130.1379061154594,0.0,False,,False,,,,,31
1303.308,3.340610353000102,-0.967529296875,0.2939453125,-0.01171875,17.00763358778626,-0.8549618320610687,1.7404580152671756,7121,1,0,156.46728515625,-130.1379061154594,0.0,False,,False,,,,,31
1303.308,3.342611949000002,-0.967529296875,0.2939453125,-0.01171875,17.00763358778626,-0.8549618320610687,1.7404580152671756,7121,1,0,156.46728515625,-130.1379061154594,0.0,False,,False,,,,,31
1303.313,3.3446135640001557,-0.961669921875,0.295166015625,-0.016357421875,15.66412213740458,-0.6717557251908397,1.83206106870229,7121,0,0,156.46728515625,-128.23818128131086,0.0,False,,False,,,,,31
1303.313,3.3466150310000558,-0.961669921875,0.295166015625,-0.016357421875,15.66412213740458,-0.6717557251908397,1.83206106870229,7121,0,0,156.46728515625,-128.23818128131086,0.0,False,,False,,,,,31
1303.318,3.3486166269999558,-0.9580078125,0.30126953125,-0.013916015625,14.50381679389313,-0.33587786259541985,2.259541984732824,7119,-5,-8,156.42333984375,-124.8218462902985,-0.010512,False,,False,,,,,31
1303.318,3.350617704999877,-0.9580078125,0.30126953125,-0.013916015625,14.50381679389313,-0.33587786259541985,2.259541984732824,7119,-5,-8,156.42333984375,-124.8218462902985,-0.010512,False,,False,,,,,31
1303.318,3.3526189680001153,-0.9580078125,0.30126953125,-0.013916015625,14.50381679389313,-0.33587786259541985,2.259541984732824,7119,-5,-8,156.42333984375,-124.8218462902985,-0.010512,False,,False,,,,,31
1303.323,3.354619916000047,-0.94384765625,0.318359375,-0.011474609375,14.778625954198473,-0.24427480916030533,3.633587786259542,7116,-13,-6,156.357421875,-120.26490257596845,-0.007884,False,,False,,,,,31
1303.323,3.356621900999926,-0.94384765625,0.318359375,-0.011474609375,14.778625954198473,-0.24427480916030533,3.633587786259542,7116,-13,-6,156.357421875,-120.26490257596845,-0.007884,False,,False,,,,,31
1303.328,3.358622998000101,-0.933349609375,0.3447265625,-0.024169921875,14.351145038167939,-0.8549618320610687,4.793893129770992,7108,-29,-1,156.181640625,-114.96231769582866,-0.001314,False,,False,,,,,31
1303.328,3.360624426999948,-0.933349609375,0.3447265625,-0.024169921875,14.351145038167939,-0.8549618320610687,4.793893129770992,7108,-29,-1,156.181640625,-114.96231769582866,-0.001314,False,,False,,,,,31
1303.328,3.3626256900001863,-0.933349609375,0.3447265625,-0.024169921875,14.351145038167939,-0.8549618320610687,4.793893129770992,7108,-29,-1,156.181640625,-114.96231769582866,-0.001314,False,,False,,,,,31
1303.333,3.3646271570000863,-0.909423828125,0.3642578125,-0.021728515625,12.702290076335878,-0.24427480916030533,7.175572519083969,7089,-90,0,155.76416015625,-109.46245584490329,0.0,False,,False,,,,,31
1303.333,3.3666287719997854,-0.909423828125,0.3642578125,-0.021728515625,12.702290076335878,-0.24427480916030533,7.175572519083969,7089,-90,0,155.76416015625,-109.46245584490329,0.0,False,,False,,,,,31
1303.338,3.3686293490000025,-0.881591796875,0.3642578125,-0.018310546875,8.916030534351144,0.42748091603053434,9.31297709923664,7054,-166,2,154.9951171875,-104.56148280740683,0.002628,False,,False,,,,,31
1303.338,3.3706344460001674,-0.881591796875,0.3642578125,-0.018310546875,8.916030534351144,0.42748091603053434,9.31297709923664,7054,-166,2,154.9951171875,-104.56148280740683,0.002628,False,,False,,,,,31
1303.338,3.372632005000014,-0.881591796875,0.3642578125,-0.018310546875,8.916030534351144,0.42748091603053434,9.31297709923664,7054,-166,2,154.9951171875,-104.56148280740683,0.002628,False,,False,,,,,31
1303.343,3.374632878999819,-0.888671875,0.383544921875,-0.013916015625,7.480916030534351,0.061068702290076333,10.80916030534351,7005,-221,-1,153.91845703125,-101.14007632738493,-0.001314,False,,False,,,,,31
1303.343,3.3766344199998457,-0.888671875,0.383544921875,-0.013916015625,7.480916030534351,0.061068702290076333,10.80916030534351,7005,-221,-1,153.91845703125,-101.14007632738493,-0.001314,False,,False,,,,,31
1303.348,3.3786360899998726,-0.87890625,0.407958984375,-0.025634765625,8.0,-0.15267175572519084,14.717557251908396,6946,-257,-4,152.6220703125,-99.86634279963107,-0.005256,False,,False,,,,,31
1303.348,3.3806375570002274,-0.87890625,0.407958984375,-0.025634765625,8.0,-0.15267175572519084,14.717557251908396,6946,-257,-4,152.6220703125,-99.86634279963107,-0.005256,False,,False,,,,,31
1303.348,3.3826387640001485,-0.87890625,0.407958984375,-0.025634765625,8.0,-0.15267175572519084,14.717557251908396,6946,-257,-4,152.6220703125,-99.86634279963107,-0.005256,False,,False,,,,,31
1303.353,3.3846407679998265,-0.851318359375,0.3896484375,-0.038818359375,9.374045801526718,-0.183206106870229,15.786259541984732,6882,-284,-5,151.2158203125,-101.02976200030947,-0.0065699999999999995,False,,False,,,,,31
1303.353,3.3866426790000332,-0.851318359375,0.3896484375,-0.038818359375,9.374045801526718,-0.183206106870229,15.786259541984732,6882,-284,-5,151.2158203125,-101.02976200030947,-0.0065699999999999995,False,,False,,,,,31
1303.358,3.3886440530000073,-0.8662109375,0.36279296875,-0.029052734375,9.34351145038168,0.0916030534351145,16.427480916030532,6810,-310,0,149.6337890625,-104.66230320394399,0.0,False,,False,,,,,31
1303.358,3.39064485300014,-0.8662109375,0.36279296875,-0.029052734375,9.34351145038168,0.0916030534351145,16.427480916030532,6810,-310,0,149.6337890625,-104.66230320394399,0.0,False,,False,,,,,31
1303.358,3.392646374999913,-0.8662109375,0.36279296875,-0.029052734375,9.34351145038168,0.0916030534351145,16.427480916030532,6810,-310,0,149.6337890625,-104.66230320394399,0.0,False,,False,,,,,31
1303.363,3.394647694000014,-0.890380859375,0.34423828125,-0.02978515625,11.48091603053435,-0.8549618320610687,15.725190839694656,6741,-298,-3,148.11767578125,-110.5958050805596,-0.003942,False,,False,,,,,31
1303.363,3.396649568000157,-0.890380859375,0.34423828125,-0.02978515625,11.48091603053435,-0.8549618320610687,15.725190839694656,6741,-298,-3,148.11767578125,-110.5958050805596,-0.003942,False,,False,,,,,31
1303.368,3.3986507009999514,-0.91015625,0.329345703125,-0.0126953125,15.633587786259541,-1.5877862595419847,15.450381679389313,6678,-275,-9,146.7333984375,-118.30600962621062,-0.011826,False,,False,,,,,31
1303.368,3.400652037999862,-0.91015625,0.329345703125,-0.0126953125,15.633587786259541,-1.5877862595419847,15.450381679389313,6678,-275,-9,146.7333984375,-118.30600962621062,-0.011826,False,,False,,,,,31
1303.368,3.4026541349999206,-0.91015625,0.329345703125,-0.0126953125,15.633587786259541,-1.5877862595419847,15.450381679389313,6678,-275,-9,146.7333984375,-118.30600962621062,-0.011826,False,,False,,,,,31
1303.373,3.404655638999884,-0.90576171875,0.312744140625,-0.012451171875,15.419847328244273,-2.351145038167939,15.083969465648854,6616,-273,0,145.37109375,-127.13729194347911,0.0,False,,False,,,,,31
1303.373,3.4066570499999216,-0.90576171875,0.312744140625,-0.012451171875,15.419847328244273,-2.351145038167939,15.083969465648854,6616,-273,0,145.37109375,-127.13729194347911,0.0,False,,False,,,,,31
1303.378,3.408659071999864,-0.9111328125,0.29296875,-0.004638671875,13.770992366412214,-1.6793893129770991,15.053435114503817,6552,-283,5,143.96484375,-136.68369007752386,0.0065699999999999995,False,,False,,,,,31
1303.378,3.410659816000134,-0.9111328125,0.29296875,-0.004638671875,13.770992366412214,-1.6793893129770991,15.053435114503817,6552,-283,5,143.96484375,-136.68369007752386,0.0065699999999999995,False,,False,,,,,31
1303.378,3.4126620980000553,-0.9111328125,0.29296875,-0.004638671875,13.770992366412214,-1.6793893129770991,15.053435114503817,6552,-283,5,143.96484375,-136.68369007752386,0.0065699999999999995,False,,False,,,,,31
1303.383,3.4146631570001773,-0.912841796875,0.296630859375,-0.005859375,12.366412213740457,-1.8015267175572518,15.083969465648854,6483,-295,4,142.44873046875,-146.81779873802893,0.005256,False,,False,,,,,31
1303.383,3.4166652909998447,-0.912841796875,0.296630859375,-0.005859375,12.366412213740457,-1.8015267175572518,15.083969465648854,6483,-295,4,142.44873046875,-146.81779873802893,0.005256,False,,False,,,,,31
1303.388,3.4186663870000302,-0.926025390625,0.345458984375,-0.009033203125,14.839694656488549,-2.564885496183206,15.541984732824426,6420,-283,1,141.064453125,-157.3926113670791,0.001314,False,,False,,,,,31
1303.388,3.420667260999835,-0.926025390625,0.345458984375,-0.009033203125,14.839694656488549,-2.564885496183206,15.541984732824426,6420,-283,1,141.064453125,-157.3926113670791,0.001314,False,,False,,,,,31
1303.388,3.422668412999883,-0.926025390625,0.345458984375,-0.009033203125,14.839694656488549,-2.564885496183206,15.541984732824426,6420,-283,1,141.064453125,-157.3926113670791,0.001314,False,,False,,,,,31
1303.393,3.4246696019999945,-0.919921875,0.307861328125,-0.02392578125,16.0,-4.152671755725191,13.893129770992365,6355,-278,0,139.63623046875,-168.10360089556758,0.0,False,,False,,,,,31
1303.393,3.426671013000032,-0.919921875,0.307861328125,-0.02392578125,16.0,-4.152671755725191,13.893129770992365,6355,-278,0,139.63623046875,-168.10360089556758,0.0,False,,False,,,,,31
1303.3980000000001,3.428672479999932,-0.950927734375,0.30029296875,-0.02294921875,19.083969465648853,-3.969465648854962,12.274809160305344,6301,-236,1,138.44970703125,-178.56652535068827,0.001314,False,,False,,,,,31
1303.3980000000001,3.43067376099998,-0.950927734375,0.30029296875,-0.02294921875,19.083969465648853,-3.969465648854962,12.274809160305344,6301,-236,1,138.44970703125,-178.56652535068827,0.001314,False,,False,,,,,31
1303.3980000000001,3.4326755430001867,-0.950927734375,0.30029296875,-0.02294921875,19.083969465648853,-3.969465648854962,12.274809160305344,6301,-236,1,138.44970703125,-178.56652535068827,0.001314,False,,False,,,,,31
1303.403,3.4346763429998646,-0.951904296875,0.309326171875,-0.02197265625,20.702290076335878,-3.7251908396946565,12.427480916030534,6251,-213,-2,137.35107421875,-188.2882265354244,-0.002628,False,,False,,,,,31
1303.403,3.4366783280001982,-0.951904296875,0.309326171875,-0.02197265625,20.702290076335878,-3.7251908396946565,12.427480916030534,6251,-213,-2,137.35107421875,-188.2882265354244,-0.002628,False,,False,,,,,31
1303.4080000000001,3.438680108999961,-0.94580078125,0.272216796875,-0.017578125,20.427480916030532,-4.427480916030534,10.381679389312977,6204,-209,-3,136.318359375,-196.89841053976895,-0.003942,False,,False,,,,,31
1303.4080000000001,3.4406811690000723,-0.94580078125,0.272216796875,-0.017578125,20.427480916030532,-4.427480916030534,10.381679389312977,6204,-209,-3,136.318359375,-196.89841053976895,-0.003942,False,,False,,,,,31
1303.4080000000001,3.4426830980000886,-0.94580078125,0.272216796875,-0.017578125,20.427480916030532,-4.427480916030534,10.381679389312977,6204,-209,-3,136.318359375,-196.89841053976895,-0.003942,False,,False,,,,,31
1303.413,3.4446845460001896,-0.966064453125,0.328857421875,-0.0029296875,19.114503816793892,-4.122137404580153,11.938931297709923,6158,-205,-1,135.3076171875,-204.27824786009612,-0.001314,False,,False,,,,,31
1303.413,3.4466855129999203,-0.966064453125,0.328857421875,-0.0029296875,19.114503816793892,-4.122137404580153,11.938931297709923,6158,-205,-1,135.3076171875,-204.27824786009612,-0.001314,False,,False,,,,,31
1303.4180000000001,3.448687202000201,-0.9365234375,0.296875,-0.019775390625,18.137404580152673,-5.068702290076335,11.419847328244275,6107,-223,0,134.18701171875,-210.52115183025253,0.0,False,,False,,,,,31
1303.4180000000001,3.45068785400008,-0.9365234375,0.296875,-0.019775390625,18.137404580152673,-5.068702290076335,11.419847328244275,6107,-223,0,134.18701171875,-210.52115183025253,0.0,False,,False,,,,,31
1303.4180000000001,3.4526893020001808,-0.9365234375,0.296875,-0.019775390625,18.137404580152673,-5.068702290076335,11.419847328244275,6107,-223,0,134.18701171875,-210.52115183025253,0.0,False,,False,,,,,31
1303.423,3.4546905649999644,-0.94287109375,0.319091796875,-0.02490234375,17.16030534351145,-3.5114503816793894,12.274809160305344,6054,-234,7,133.0224609375,-215.89686833985735,0.009198,False,,False,,,,,31
1303.423,3.456691587000023,-0.94287109375,0.319091796875,-0.02490234375,17.16030534351145,-3.5114503816793894,12.274809160305344,6054,-234,7,133.0224609375,-215.89686833985735,0.009198,False,,False,,,,,31
1303.428,3.458693295000103,-0.92333984375,0.310791015625,-0.04248046875,19.389312977099237,-3.7862595419847325,12.0,6003,-231,1,131.90185546875,-220.5801240350067,0.001314,False,,False,,,,,31
1303.428,3.4606942979999076,-0.92333984375,0.310791015625,-0.04248046875,19.389312977099237,-3.7862595419847325,12.0,6003,-231,1,131.90185546875,-220.5801240350067,0.001314,False,,False,,,,,31
1303.428,3.4626961730000403,-0.92333984375,0.310791015625,-0.04248046875,19.389312977099237,-3.7862595419847325,12.0,6003,-231,1,131.90185546875,-220.5801240350067,0.001314,False,,False,,,,,31
1303.433,3.4646986389998347,-0.951416015625,0.349609375,-0.025146484375,19.267175572519083,-3.0839694656488548,13.374045801526718,5947,-248,3,130.67138671875,-224.66356597754273,0.003942,False,,False,,,,,31
1303.433,3.466699994999999,-0.951416015625,0.349609375,-0.025146484375,19.267175572519083,-3.0839694656488548,13.374045801526718,5947,-248,3,130.67138671875,-224.66356597754273,0.003942,False,,False,,,,,31
1303.438,3.468701590999899,-0.947021484375,0.330322265625,-0.03076171875,20.183206106870227,-4.396946564885496,13.068702290076335,5893,-237,6,129.48486328125,-228.2811927029871,0.007884,False,,False,,,,,31
1303.438,3.4707029470000634,-0.947021484375,0.330322265625,-0.03076171875,20.183206106870227,-4.396946564885496,13.068702290076335,5893,-237,6,129.48486328125,-228.2811927029871,0.007884,False,,False,,,,,31
1303.438,3.472705116999805,-0.947021484375,0.330322265625,-0.03076171875,20.183206106870227,-4.396946564885496,13.068702290076335,5893,-237,6,129.48486328125,-228.2811927029871,0.007884,False,,False,,,,,31
1303.443,3.474706175999927,-0.935302734375,0.291748046875,-0.0458984375,21.43511450381679,-3.5725190839694654,11.938931297709923,5841,-227,0,128.34228515625,-231.4405243158512,0.0,False,,False,,,,,31
1303.443,3.476707995000197,-0.935302734375,0.291748046875,-0.0458984375,21.43511450381679,-3.5725190839694654,11.938931297709923,5841,-227,0,128.34228515625,-231.4405243158512,0.0,False,,False,,,,,31
1303.448,3.478709591000097,-0.95458984375,0.313232421875,-0.03271484375,20.793893129770993,-3.969465648854962,12.305343511450381,5788,-238,0,127.177734375,-234.09083333501977,0.0,False,,False,,,,,31
1303.448,3.4807107800002086,-0.95458984375,0.313232421875,-0.03271484375,20.793893129770993,-3.969465648854962,12.305343511450381,5788,-238,0,127.177734375,-234.09083333501977,0.0,False,,False,,,,,31
1303.448,3.482712580000225,-0.95458984375,0.313232421875,-0.03271484375,20.793893129770993,-3.969465648854962,12.305343511450381,5788,-238,0,127.177734375,-234.09083333501977,0.0,False,,False,,,,,31
1303.453,3.4847141390000616,-0.941650390625,0.3056640625,-0.03173828125,21.19083969465649,-2.5343511450381677,11.969465648854962,5735,-238,4,126.01318359375,-236.27660367793817,0.005256,False,,False,,,,,31
1303.453,3.486714939000194,-0.941650390625,0.3056640625,-0.03173828125,21.19083969465649,-2.5343511450381677,11.969465648854962,5735,-238,4,126.01318359375,-236.27660367793817,0.005256,False,,False,,,,,31
1303.458,3.488715998999851,-0.954833984375,0.34716796875,-0.026123046875,20.610687022900763,-1.7404580152671756,13.648854961832061,5677,-255,0,124.73876953125,-238.1372996641819,0.0,False,,False,,,,,31
1303.458,3.490717465000216,-0.954833984375,0.34716796875,-0.026123046875,20.610687022900763,-1.7404580152671756,13.648854961832061,5677,-255,0,124.73876953125,-238.1372996641819,0.0,False,,False,,,,,31
1303.458,3.4927191169999787,-0.954833984375,0.34716796875,-0.026123046875,20.610687022900763,-1.7404580152671756,13.648854961832061,5677,-255,0,124.73876953125,-238.1372996641819,0.0,False,,False,,,,,31
1303.463,3.494720862000122,-0.935546875,0.35009765625,-0.024169921875,19.297709923664122,-2.8702290076335877,14.229007633587786,5615,-278,0,123.37646484375,-239.9217122670209,0.0,False,,False,,,,,31
1303.463,3.4967224209999586,-0.935546875,0.35009765625,-0.024169921875,19.297709923664122,-2.8702290076335877,14.229007633587786,5615,-278,0,123.37646484375,-239.9217122670209,0.0,False,,False,,,,,31
1303.468,3.4987240909999855,-0.94482421875,0.361083984375,-0.03076171875,20.213740458015266,-1.282442748091603,14.534351145038167,5552,-278,2,121.9921875,-241.83922982075313,0.002628,False,,False,,,,,31
1303.468,3.5007250210001075,-0.94482421875,0.361083984375,-0.03076171875,20.213740458015266,-1.282442748091603,14.534351145038167,5552,-278,2,121.9921875,-241.83922982075313,0.002628,False,,False,,,,,31
1303.468,3.5027270059999864,-0.94482421875,0.361083984375,-0.03076171875,20.213740458015266,-1.282442748091603,14.534351145038167,5552,-278,2,121.9921875,-241.83922982075313,0.002628,False,,False,,,,,31
1303.473,3.504728195000098,-0.9296875,0.37646484375,-0.03271484375,20.030534351145036,-1.282442748091603,16.27480916030534,5482,-309,4,120.4541015625,-244.04730454928395,0.005256,False,,False,,,,,31
1303.473,3.5067288469999767,-0.9296875,0.37646484375,-0.03271484375,20.030534351145036,-1.282442748091603,16.27480916030534,5482,-309,4,120.4541015625,-244.04730454928395,0.005256,False,,False,,,,,31
1303.478,3.5087308319998556,-0.94677734375,0.3818359375,-0.02978515625,20.30534351145038,-2.5038167938931295,16.12213740458015,5411,-312,1,118.89404296875,-246.7212901210039,0.001314,False,,False,,,,,31
1303.478,3.5107318360001045,-0.94677734375,0.3818359375,-0.02978515625,20.30534351145038,-2.5038167938931295,16.12213740458015,5411,-312,1,118.89404296875,-246.7212901210039,0.001314,False,,False,,,,,31
1303.478,3.512733487999867,-0.94677734375,0.3818359375,-0.02978515625,20.30534351145038,-2.5038167938931295,16.12213740458015,5411,-312,1,118.89404296875,-246.7212901210039,0.001314,False,,False,,,,,31
1303.483,3.5147342879999997,-0.94384765625,0.38818359375,-0.04150390625,21.557251908396946,-2.015267175572519,16.519083969465647,5338,-312,-3,117.2900390625,-249.9216619238402,-0.003942,False,,False,,,,,31
1303.483,3.5167355319999842,-0.94384765625,0.38818359375,-0.04150390625,21.557251908396946,-2.015267175572519,16.519083969465647,5338,-312,-3,117.2900390625,-249.9216619238402,-0.003942,False,,False,,,,,31
1303.488,3.518736739999895,-0.9384765625,0.369140625,-0.04052734375,22.99236641221374,-2.9923664122137406,16.732824427480914,5265,-321,-1,115.68603515625,-253.5959296742189,-0.001314,False,,False,,,,,31
1303.488,3.520737502999964,-0.9384765625,0.369140625,-0.04052734375,22.99236641221374,-2.9923664122137406,16.732824427480914,5265,-321,-1,115.68603515625,-253.5959296742189,-0.001314,False,,False,,,,,31
1303.488,3.5227392100000543,-0.9384765625,0.369140625,-0.04052734375,22.99236641221374,-2.9923664122137406,16.732824427480914,5265,-321,-1,115.68603515625,-253.5959296742189,-0.001314,False,,False,,,,,31
1303.493,3.5247410289998697,-0.9345703125,0.36962890625,-0.044189453125,22.442748091603054,-3.145038167938931,17.221374045801525,5188,-337,2,113.994140625,-257.70919986168514,0.002628,False,,False,,,,,31
1303.493,3.5267418100002033,-0.9345703125,0.36962890625,-0.044189453125,22.442748091603054,-3.145038167938931,17.221374045801525,5188,-337,2,113.994140625,-257.70919986168514,0.002628,False,,False,,,,,31
1303.498,3.528743220999786,-0.94384765625,0.3720703125,-0.040283203125,21.43511450381679,-3.5114503816793894,16.641221374045802,5108,-355,4,112.236328125,-262.30547853446535,0.005256,False,,False,,,,,31
1303.498,3.530744225000035,-0.94384765625,0.3720703125,-0.040283203125,21.43511450381679,-3.5114503816793894,16.641221374045802,5108,-355,4,112.236328125,-262.30547853446535,0.005256,False,,False,,,,,31
1303.498,3.532746209999914,-0.94384765625,0.3720703125,-0.040283203125,21.43511450381679,-3.5114503816793894,16.641221374045802,5108,-355,4,112.236328125,-262.30547853446535,0.005256,False,,False,,,,,31
1303.503,3.5347473810002157,-0.953125,0.41015625,-0.03076171875,21.923664122137403,-2.8396946564885495,18.229007633587784,5024,-381,4,110.390625,-267.4623563148535,0.005256,False,,False,,,,,31
1303.503,3.5367488659999253,-0.953125,0.41015625,-0.03076171875,21.923664122137403,-2.8396946564885495,18.229007633587784,5024,-381,4,110.390625,-267.4623563148535,0.005256,False,,False,,,,,31
1303.508,3.5387501850000262,-0.9482421875,0.4130859375,-0.039306640625,24.580152671755723,-4.458015267175572,18.045801526717558,4937,-383,0,108.47900390625,-273.2366694024424,0.0,False,,False,,,,,31
1303.508,3.5407516139998734,-0.9482421875,0.4130859375,-0.039306640625,24.580152671755723,-4.458015267175572,18.045801526717558,4937,-383,0,108.47900390625,-273.2366694024424,0.0,False,,False,,,,,31
1303.508,3.5427528770001118,-0.9482421875,0.4130859375,-0.039306640625,24.580152671755723,-4.458015267175572,18.045801526717558,4937,-383,0,108.47900390625,-273.2366694024424,0.0,False,,False,,,,,31
1303.513,3.54475378799998,-0.927001953125,0.3955078125,-0.05224609375,25.893129770992367,-4.977099236641221,17.49618320610687,4854,-365,-5,106.6552734375,-279.5397306637411,-0.0065699999999999995,False,,False,,,,,31
1303.513,3.5467553110001973,-0.927001953125,0.3955078125,-0.05224609375,25.893129770992367,-4.977099236641221,17.49618320610687,4854,-365,-5,106.6552734375,-279.5397306637411,-0.0065699999999999995,False,,False,,,,,31
1303.518,3.548757406999812,-0.9482421875,0.408935546875,-0.034912109375,28.335877862595417,-5.557251908396946,17.587786259541986,4771,-367,-6,104.83154296875,-286.1145615094013,-0.007884,False,,False,,,,,31
1303.518,3.5507582810000713,-0.9482421875,0.408935546875,-0.034912109375,28.335877862595417,-5.557251908396946,17.587786259541986,4771,-367,-6,104.83154296875,-286.1145615094013,-0.007884,False,,False,,,,,31
1303.518,3.552760803000183,-0.9482421875,0.408935546875,-0.034912109375,28.335877862595417,-5.557251908396946,17.587786259541986,4771,-367,-6,104.83154296875,-286.1145615094013,-0.007884,False,,False,,,,,31
1303.5230000000001,3.5547620659999666,-0.928466796875,0.38720703125,-0.044921875,28.519083969465647,-6.106870229007633,18.16793893129771,4686,-373,-1,102.9638671875,-292.7898339058591,-0.001314,False,,False,,,,,31
1303.5230000000001,3.5567639030000464,-0.928466796875,0.38720703125,-0.044921875,28.519083969465647,-6.106870229007633,18.16793893129771,4686,-373,-1,102.9638671875,-292.7898339058591,-0.001314,False,,False,,,,,31
1303.528,3.558764350999809,-0.9365234375,0.39892578125,-0.027099609375,25.770992366412212,-6.229007633587786,18.9618320610687,4596,-391,-2,100.986328125,-299.5957316164429,-0.002628,False,,False,,,,,31
1303.528,3.5607658180001636,-0.9365234375,0.39892578125,-0.027099609375,25.770992366412212,-6.229007633587786,18.9618320610687,4596,-391,-2,100.986328125,-299.5957316164429,-0.002628,False,,False,,,,,31
1303.528,3.5627668960000847,-0.9365234375,0.39892578125,-0.027099609375,25.770992366412212,-6.229007633587786,18.9618320610687,4596,-391,-2,100.986328125,-299.5957316164429,-0.002628,False,,False,,,,,31
1303.5330000000001,3.564769474000059,-0.923583984375,0.376220703125,-0.0361328125,26.381679389312975,-7.541984732824427,18.045801526717558,4506,-394,3,99.0087890625,-306.60337837867877,0.003942,False,,False,,,,,31
1303.5330000000001,3.5667698110000856,-0.923583984375,0.376220703125,-0.0361328125,26.381679389312975,-7.541984732824427,18.045801526717558,4506,-394,3,99.0087890625,-306.60337837867877,0.003942,False,,False,,,,,31
1303.538,3.5687709809999433,-0.942626953125,0.39599609375,-0.039794921875,28.885496183206104,-8.183206106870228,17.740458015267176,4419,-382,2,97.09716796875,-313.7102390713352,0.002628,False,,False,,,,,31
1303.538,3.570772503000171,-0.942626953125,0.39599609375,-0.039794921875,28.885496183206104,-8.183206106870228,17.740458015267176,4419,-382,2,97.09716796875,-313.7102390713352,0.002628,False,,False,,,,,31
1303.538,3.572773322000103,-0.942626953125,0.39599609375,-0.039794921875,28.885496183206104,-8.183206106870228,17.740458015267176,4419,-382,2,97.09716796875,-313.7102390713352,0.002628,False,,False,,,,,31
1303.5430000000001,3.574774843999876,-0.927734375,0.393798828125,-0.047119140625,31.419847328244273,-9.618320610687023,16.702290076335878,4335,-372,1,95.25146484375,-320.65396436873647,0.001314,False,,False,,,,,31
1303.5430000000001,3.5767765149998922,-0.927734375,0.393798828125,-0.047119140625,31.419847328244273,-9.618320610687023,16.702290076335878,4335,-372,1,95.25146484375,-320.65396436873647,0.001314,False,,False,,,,,31
1303.548,3.5787778889998663,-0.927734375,0.363525390625,-0.05029296875,30.35114503816794,-10.229007633587786,17.893129770992367,4250,-385,3,93.3837890625,-327.2331991195846,0.003942,False,,False,,,,,31
1303.548,3.5807789669997874,-0.927734375,0.363525390625,-0.05029296875,30.35114503816794,-10.229007633587786,17.893129770992367,4250,-385,3,93.3837890625,-327.2331991195846,0.003942,False,,False,,,,,31
1303.548,3.5827806550000787,-0.927734375,0.363525390625,-0.05029296875,30.35114503816794,-10.229007633587786,17.893129770992367,4250,-385,3,93.3837890625,-327.2331991195846,0.003942,False,,False,,,,,31
