state_time,loop_time,accel_x,accel_y,accel_z,gyro_x,gyro_y,gyro_z,motor_angle,motor_velocity,motor_current,hip_angle,hip_velocity,hip_torque_from_current,did_heel_strike,gait_phase,did_toe_off,commanded_current,commanded_position,commanded_torque,commanded_voltage,temperature
2218.605,4.207814550999956,-0.942138671875,0.311767578125,0.0224609375,2.900763358778626,-0.33587786259541985,0.2748091603053435,7001,1,-3,17.305938720703125,0.009419722749305477,-0.003942,False,,False,,,,,32
2218.61,4.209817784999814,-0.9375,0.309326171875,0.02392578125,2.9618320610687023,-0.2748091603053435,0.15267175572519084,7000,-5,1,17.303466796875,0.005405239824691152,0.001314,False,,False,,,,,32
2218.61,4.211819832999936,-0.9375,0.309326171875,0.02392578125,2.9618320610687023,-0.2748091603053435,0.15267175572519084,7000,-5,1,17.303466796875,0.005405239824691152,0.001314,False,,False,,,,,32
2218.6150000000002,4.214452521999647,-0.936767578125,0.30712890625,0.02197265625,3.0839694656488548,-0.3969465648854962,0.12213740458015267,7001,-1,5,17.305938720703125,-0.0003032257726003917,0.0065699999999999995,False,,False,,,,,32
2218.6150000000002,4.216440754999894,-0.936767578125,0.30712890625,0.02197265625,3.0839694656488548,-0.3969465648854962,0.12213740458015267,7001,-1,5,17.305938720703125,-0.0003032257726003917,0.0065699999999999995,False,,False,,,,,32
2218.62,4.218444451999858,-0.943115234375,0.30224609375,0.021728515625,3.145038167938931,-0.33587786259541985,0.061068702290076333,7002,2,-1,17.30841064453125,-0.0014968473448397541,-0.001314,False,,False,,,,,32
2218.62,4.220444870999927,-0.943115234375,0.30224609375,0.021728515625,3.145038167938931,-0.33587786259541985,0.061068702290076333,7002,2,-1,17.30841064453125,-0.0014968473448397541,-0.001314,False,,False,,,,,32
2218.62,4.2224436599999535,-0.943115234375,0.30224609375,0.021728515625,3.145038167938931,-0.33587786259541985,0.061068702290076333,7002,2,-1,17.30841064453125,-0.0014968473448397541,-0.001314,False,,False,,,,,32
2218.625,4.224450818999685,-0.94140625,0.301025390625,0.02099609375,3.2061068702290076,-0.183206106870229,0.030534351145038167,7001,2,1,17.305938720703125,0.001106567327876299,0.001314,False,,False,,,,,32
2218.625,4.226447422999627,-0.94140625,0.301025390625,0.02099609375,3.2061068702290076,-0.183206106870229,0.030534351145038167,7001,2,1,17.305938720703125,0.001106567327876299,0.001314,False,,False,,,,,32
2218.63,4.228449841999918,-0.943115234375,0.30078125,0.020751953125,3.297709923664122,-0.061068702290076333,0.12213740458015267,7001,1,-2,17.305938720703125,0.0014795636180148443,-0.002628,False,,False,,,,,32
2218.63,4.230451186999744,-0.943115234375,0.30078125,0.020751953125,3.297709923664122,-0.061068702290076333,0.12213740458015267,7001,1,-2,17.305938720703125,0.0014795636180148443,-0.002628,False,,False,,,,,32
2218.63,4.232453531999909,-0.943115234375,0.30078125,0.020751953125,3.297709923664122,-0.061068702290076333,0.12213740458015267,7001,1,-2,17.305938720703125,0.0014795636180148443,-0.002628,False,,False,,,,,32
2218.635,4.234454449999703,-0.9453125,0.30029296875,0.020751953125,3.145038167938931,-0.061068702290076333,0.33587786259541985,7002,3,-6,17.30841064453125,0.001770395235283301,-0.007884,False,,False,,,,,32
2218.635,4.236455147000015,-0.9453125,0.30029296875,0.020751953125,3.145038167938931,-0.061068702290076333,0.33587786259541985,7002,3,-6,17.30841064453125,0.001770395235283301,-0.007884,False,,False,,,,,32
2218.64,4.238457898999968,-0.947265625,0.295654296875,0.0185546875,3.0534351145038165,0.15267175572519084,0.33587786259541985,7001,2,-4,17.305938720703125,0.0037787310647990563,-0.005256,False,,False,,,,,32
2218.64,4.2404591330000585,-0.947265625,0.295654296875,0.0185546875,3.0534351145038165,0.15267175572519084,0.33587786259541985,7001,2,-4,17.305938720703125,0.0037787310647990563,-0.005256,False,,False,,,,,32
2218.64,4.242485217999729,-0.947265625,0.295654296875,0.0185546875,3.0534351145038165,0.15267175572519084,0.33587786259541985,7001,2,-4,17.305938720703125,0.0037787310647990563,-0.005256,False,,False,,,,,32
2218.645,4.244487080999988,-0.952392578125,0.297607421875,0.02001953125,3.0534351145038165,0.15267175572519084,0.3053435114503817,7002,0,4,17.30841064453125,0.005405331528714923,0.005256,False,,False,,,,,32
2218.645,4.246487759000047,-0.952392578125,0.297607421875,0.02001953125,3.0534351145038165,0.15267175572519084,0.3053435114503817,7002,0,4,17.30841064453125,0.005405331528714923,0.005256,False,,False,,,,,32
2218.65,4.248489695999979,-0.950927734375,0.298583984375,0.021484375,2.778625954198473,0.33587786259541985,0.33587786259541985,7001,-5,5,17.305938720703125,0.006688786033748543,0.0065699999999999995,False,,False,,,,,32
2218.65,4.250490133999847,-0.950927734375,0.298583984375,0.021484375,2.778625954198473,0.33587786259541985,0.33587786259541985,7001,-5,5,17.305938720703125,0.006688786033748543,0.0065699999999999995,False,,False,,,,,32
2218.65,4.2524930149998,-0.950927734375,0.298583984375,0.021484375,2.778625954198473,0.33587786259541985,0.33587786259541985,7001,-5,5,17.305938720703125,0.006688786033748543,0.0065699999999999995,False,,False,,,,,32
2218.655,4.254494285999954,-0.954345703125,0.298095703125,0.0205078125,2.595419847328244,0.3969465648854962,0.48854961832061067,7001,1,-4,17.305938720703125,0.0058758678177543025,-0.005256,False,,False,,,,,32
2218.655,4.256495611999981,-0.954345703125,0.298095703125,0.0205078125,2.595419847328244,0.3969465648854962,0.48854961832061067,7001,1,-4,17.305938720703125,0.0058758678177543025,-0.005256,False,,False,,,,,32
2218.66,4.258496345999902,-0.952392578125,0.298583984375,0.0205078125,2.259541984732824,0.183206106870229,0.549618320610687,7001,-1,-3,17.305938720703125,0.0033196813490259354,-0.003942,False,,False,,,,,32
2218.66,4.2604965799996535,-0.952392578125,0.298583984375,0.0205078125,2.259541984732824,0.183206106870229,0.549618320610687,7001,-1,-3,17.305938720703125,0.0033196813490259354,-0.003942,False,,False,,,,,32
2218.66,4.2625044239998715,-0.952392578125,0.298583984375,0.0205078125,2.259541984732824,0.183206106870229,0.549618320610687,7001,-1,-3,17.305938720703125,0.0033196813490259354,-0.003942,False,,False,,,,,32
2218.665,4.264501825000025,-0.953857421875,0.301025390625,0.0244140625,1.984732824427481,0.12213740458015267,0.549618320610687,7000,-7,-6,17.303466796875,-0.0006589065409785715,-0.007884,False,,False,,,,,32
2218.665,4.266502168999978,-0.953857421875,0.301025390625,0.0244140625,1.984732824427481,0.12213740458015267,0.549618320610687,7000,-7,-6,17.303466796875,-0.0006589065409785715,-0.007884,False,,False,,,,,32
2218.67,4.268547809999745,-0.951904296875,0.2978515625,0.023193359375,1.8931297709923662,0.2748091603053435,0.549618320610687,7001,-3,-3,17.305938720703125,-0.005770666088728957,-0.003942,False,,False,,,,,32
2218.67,4.27054617299973,-0.951904296875,0.2978515625,0.023193359375,1.8931297709923662,0.2748091603053435,0.549618320610687,7001,-3,-3,17.305938720703125,-0.005770666088728957,-0.003942,False,,False,,,,,32
2218.67,4.272549850999894,-0.951904296875,0.2978515625,0.023193359375,1.8931297709923662,0.2748091603053435,0.549618320610687,7001,-3,-3,17.305938720703125,-0.005770666088728957,-0.003942,False,,False,,,,,32
2218.675,4.274553343999742,-0.948974609375,0.296142578125,0.02490234375,1.7099236641221374,0.15267175572519084,0.7022900763358778,7000,-1,7,17.303466796875,-0.009966539328928863,0.009198,False,,False,,,,,32
2218.675,4.276552039999842,-0.948974609375,0.296142578125,0.02490234375,1.7099236641221374,0.15267175572519084,0.7022900763358778,7000,-1,7,17.303466796875,-0.009966539328928863,0.009198,False,,False,,,,,32
2218.68,4.278574699999808,-0.95068359375,0.298583984375,0.020751953125,1.618320610687023,0.48854961832061067,0.6717557251908397,7001,0,2,17.305938720703125,-0.013334864891435969,0.002628,False,,False,,,,,32
2218.68,4.280572952000057,-0.95068359375,0.298583984375,0.020751953125,1.618320610687023,0.48854961832061067,0.6717557251908397,7001,0,2,17.305938720703125,-0.013334864891435969,0.002628,False,,False,,,,,32
2218.68,4.282572444999914,-0.95068359375,0.298583984375,0.020751953125,1.618320610687023,0.48854961832061067,0.6717557251908397,7001,0,2,17.305938720703125,-0.013334864891435969,0.002628,False,,False,,,,,32
2218.685,4.28457695599991,-0.949951171875,0.2939453125,0.022216796875,1.5267175572519083,0.5801526717557252,0.7633587786259541,7001,2,-3,17.305938720703125,-0.014171082545885002,-0.003942,False,,False,,,,,32
2218.685,4.286577744999704,-0.949951171875,0.2939453125,0.022216796875,1.5267175572519083,0.5801526717557252,0.7633587786259541,7001,2,-3,17.305938720703125,-0.014171082545885002,-0.003942,False,,False,,,,,32
2218.69,4.288581070999953,-0.9482421875,0.296142578125,0.020263671875,1.4961832061068703,0.7022900763358778,0.7633587786259541,7001,-3,-1,17.305938720703125,-0.012875351864784092,-0.001314,False,,False,,,,,32
2218.69,4.290580563999811,-0.9482421875,0.296142578125,0.020263671875,1.4961832061068703,0.7022900763358778,0.7633587786259541,7001,-3,-1,17.305938720703125,-0.012875351864784092,-0.001314,False,,False,,,,,32
2218.69,4.2925821499998165,-0.9482421875,0.296142578125,0.020263671875,1.4961832061068703,0.7022900763358778,0.7633587786259541,7001,-3,-1,17.305938720703125,-0.012875351864784092,-0.001314,False,,False,,,,,32
2218.695,4.294584993999706,-0.947509765625,0.3017578125,0.02099609375,1.282442748091603,0.8244274809160305,0.732824427480916,7000,1,0,17.303466796875,-0.013394572385096686,0.0,False,,False,,,,,32
2218.695,4.297580678000031,-0.947509765625,0.3017578125,0.02099609375,1.282442748091603,0.8244274809160305,0.732824427480916,7000,1,0,17.303466796875,-0.013394572385096686,0.0,False,,False,,,,,32
2218.7000000000003,4.299580263999815,-0.950439453125,0.298583984375,0.02197265625,1.2519083969465647,0.9770992366412213,0.7938931297709924,7001,-3,0,17.305938720703125,-0.01542571494371539,0.0,False,,False,,,,,32
2218.7000000000003,4.3015796459999365,-0.950439453125,0.298583984375,0.02197265625,1.2519083969465647,0.9770992366412213,0.7938931297709924,7001,-3,0,17.305938720703125,-0.01542571494371539,0.0,False,,False,,,,,32
2218.705,4.303584971999953,-0.9501953125,0.30029296875,0.023681640625,1.129770992366412,1.0076335877862594,0.7633587786259541,7000,1,0,17.303466796875,-0.016902682118374177,0.0,False,,False,,,,,32
2218.705,4.305582760999641,-0.9501953125,0.30029296875,0.023681640625,1.129770992366412,1.0076335877862594,0.7633587786259541,7000,1,0,17.303466796875,-0.016902682118374177,0.0,False,,False,,,,,32
2218.705,4.307583531999626,-0.9501953125,0.30029296875,0.023681640625,1.129770992366412,1.0076335877862594,0.7633587786259541,7000,1,0,17.303466796875,-0.016902682118374177,0.0,False,,False,,,,,32
2218.71,4.309589097999833,-0.94921875,0.30078125,0.021484375,1.129770992366412,1.099236641221374,1.0076335877862594,7000,0,3,17.303466796875,-0.01968481157819564,0.003942,False,,False,,,,,32
2218.71,4.311587646999669,-0.94921875,0.30078125,0.021484375,1.129770992366412,1.099236641221374,1.0076335877862594,7000,0,3,17.303466796875,-0.01968481157819564,0.003942,False,,False,,,,,32
2218.715,4.313593565999781,-0.94580078125,0.302734375,0.023193359375,1.0076335877862594,1.0381679389312977,0.916030534351145,7001,3,0,17.305938720703125,-0.021728790840669428,0.0,False,,False,,,,,32
2218.715,4.3155906509996385,-0.94580078125,0.302734375,0.023193359375,1.0076335877862594,1.0381679389312977,0.916030534351145,7001,3,0,17.305938720703125,-0.021728790840669428,0.0,False,,False,,,,,32
2218.715,4.317593533000036,-0.94580078125,0.302734375,0.023193359375,1.0076335877862594,1.0381679389312977,0.916030534351145,7001,3,0,17.305938720703125,-0.021728790840669428,0.0,False,,False,,,,,32
2218.7200000000003,4.31959589600001,-0.947509765625,0.30419921875,0.022705078125,0.916030534351145,1.0687022900763359,0.916030534351145,6999,-7,-2,17.300994873046875,-0.023125193734242686,-0.002628,False,,False,,,,,32
2218.7200000000003,4.321595907999836,-0.947509765625,0.30419921875,0.022705078125,0.916030534351145,1.0687022900763359,0.916030534351145,6999,-7,-2,17.300994873046875,-0.023125193734242686,-0.002628,False,,False,,,,,32
2218.7200000000003,4.323598325999683,-0.947509765625,0.30419921875,0.022705078125,0.916030534351145,1.0687022900763359,0.916030534351145,6999,-7,-2,17.300994873046875,-0.023125193734242686,-0.002628,False,,False,,,,,32
2218.725,4.325599244999921,-0.94384765625,0.30712890625,0.02294921875,0.8854961832061068,1.099236641221374,0.9770992366412213,7002,6,0,17.30841064453125,-0.023959228267308695,0.0,False,,False,,,,,32
2218.725,4.327599718999863,-0.94384765625,0.30712890625,0.02294921875,0.8854961832061068,1.099236641221374,0.9770992366412213,7002,6,0,17.30841064453125,-0.023959228267308695,0.0,False,,False,,,,,32
2218.73,4.329601935000028,-0.947021484375,0.305908203125,0.025146484375,0.916030534351145,1.1908396946564885,1.0076335877862594,7001,2,-3,17.305938720703125,-0.018938863396755778,-0.003942,False,,False,,,,,32
2218.73,4.331602908999685,-0.947021484375,0.305908203125,0.025146484375,0.916030534351145,1.1908396946564885,1.0076335877862594,7001,2,-3,17.305938720703125,-0.018938863396755778,-0.003942,False,,False,,,,,32
2218.735,4.3336058089998915,-0.943115234375,0.309326171875,0.025634765625,0.8244274809160305,1.0381679389312977,1.129770992366412,7000,1,-1,17.303466796875,-0.014461543918118859,-0.001314,False,,False,,,,,32
2218.735,4.335605949999717,-0.943115234375,0.309326171875,0.025634765625,0.8244274809160305,1.0381679389312977,1.129770992366412,7000,1,-1,17.303466796875,-0.014461543918118859,-0.001314,False,,False,,,,,32
2218.735,4.337605961999998,-0.943115234375,0.309326171875,0.025634765625,0.8244274809160305,1.0381679389312977,1.129770992366412,7000,1,-1,17.303466796875,-0.014461543918118859,-0.001314,False,,False,,,,,32
2218.7400000000002,4.33961043599993,-0.945556640625,0.306640625,0.0224609375,0.6717557251908397,1.2213740458015268,0.9465648854961831,7001,0,0,17.305938720703125,-0.014084722112425146,0.0,False,,False,,,,,32
2218.7400000000002,4.341609113999766,-0.945556640625,0.306640625,0.0224609375,0.6717557251908397,1.2213740458015268,0.9465648854961831,7001,0,0,17.305938720703125,-0.014084722112425146,0.0,False,,False,,,,,32
2218.745,4.343612254999698,-0.942626953125,0.306884765625,0.023193359375,0.8244274809160305,1.0687022900763359,0.916030534351145,7000,2,-6,17.303466796875,-0.013565212300198144,-0.007884,False,,False,,,,,32
2218.745,4.345611821999682,-0.942626953125,0.306884765625,0.023193359375,0.8244274809160305,1.0687022900763359,0.916030534351145,7000,2,-6,17.303466796875,-0.013565212300198144,-0.007884,False,,False,,,,,32
2218.745,4.3476144629999,-0.942626953125,0.306884765625,0.023193359375,0.8244274809160305,1.0687022900763359,0.916030534351145,7000,2,-6,17.303466796875,-0.013565212300198144,-0.007884,False,,False,,,,,32
2218.75,4.349616751999747,-0.94091796875,0.3095703125,0.023193359375,0.8549618320610687,1.1603053435114503,0.916030534351145,7001,4,-4,17.305938720703125,-0.012933772703545085,-0.005256,False,,False,,,,,32
2218.75,4.351617225999689,-0.94091796875,0.3095703125,0.023193359375,0.8549618320610687,1.1603053435114503,0.916030534351145,7001,4,-4,17.305938720703125,-0.012933772703545085,-0.005256,False,,False,,,,,32
2218.755,4.353619866999907,-0.9375,0.31298828125,0.02392578125,1.1908396946564885,1.1908396946564885,0.732824427480916,7000,5,-1,17.303466796875,-0.012217775037438613,-0.001314,False,,False,,,,,32
2218.755,4.355619730999933,-0.9375,0.31298828125,0.02392578125,1.1908396946564885,1.1908396946564885,0.732824427480916,7000,5,-1,17.303466796875,-0.012217775037438613,-0.001314,False,,False,,,,,32
2218.755,4.357619945999886,-0.9375,0.31298828125,0.02392578125,1.1908396946564885,1.1908396946564885,0.732824427480916,7000,5,-1,17.303466796875,-0.012217775037438613,-0.001314,False,,False,,,,,32
2218.76,4.359623178999755,-0.9345703125,0.306884765625,0.025634765625,1.6793893129770991,1.2213740458015268,1.1603053435114503,7000,-1,4,17.303466796875,-0.013231863535892854,0.005256,False,,False,,,,,32
2218.76,4.361984407999898,-0.9345703125,0.306884765625,0.025634765625,1.6793893129770991,1.2213740458015268,1.1603053435114503,7000,-1,4,17.303466796875,-0.013231863535892854,0.005256,False,,False,,,,,32
2218.765,4.363983104999988,-0.943603515625,0.30419921875,0.028076171875,1.648854961832061,1.129770992366412,1.4045801526717556,7000,0,5,17.303466796875,-0.01567965760413182,0.0065699999999999995,False,,False,,,,,32
2218.765,4.365981912999814,-0.943603515625,0.30419921875,0.028076171875,1.648854961832061,1.129770992366412,1.4045801526717556,7000,0,5,17.303466796875,-0.01567965760413182,0.0065699999999999995,False,,False,,,,,32
2218.765,4.367983886999809,-0.943603515625,0.30419921875,0.028076171875,1.648854961832061,1.129770992366412,1.4045801526717556,7000,0,5,17.303466796875,-0.01567965760413182,0.0065699999999999995,False,,False,,,,,32
2218.77,4.369989880000048,-0.934814453125,0.301025390625,0.024169921875,1.465648854961832,1.0076335877862594,1.3740458015267174,7000,2,-3,17.303466796875,-0.017501758979693638,-0.003942,False,,False,,,,,32
2218.77,4.371988168999906,-0.934814453125,0.301025390625,0.024169921875,1.465648854961832,1.0076335877862594,1.3740458015267174,7000,2,-3,17.303466796875,-0.017501758979693638,-0.003942,False,,False,,,,,32
2218.775,4.3739918469996155,-0.94384765625,0.3017578125,0.027587890625,0.9465648854961831,0.8549618320610687,1.5267175572519083,6999,5,-9,17.300994873046875,-0.020564149797027687,-0.011826,False,,False,,,,,32
2218.775,4.375989802999811,-0.94384765625,0.3017578125,0.027587890625,0.9465648854961831,0.8549618320610687,1.5267175572519083,6999,5,-9,17.300994873046875,-0.020564149797027687,-0.011826,False,,False,,,,,32
2218.775,4.377994647999913,-0.94384765625,0.3017578125,0.027587890625,0.9465648854961831,0.8549618320610687,1.5267175572519083,6999,5,-9,17.300994873046875,-0.020564149797027687,-0.011826,False,,False,,,,,32
2218.78,4.379997528999866,-0.933837890625,0.30517578125,0.019775390625,0.7633587786259541,0.8244274809160305,1.5267175572519083,6998,-8,-9,17.29852294921875,-0.028201532494176132,-0.011826,False,,False,,,,,32
2218.78,4.38199613300003,-0.933837890625,0.30517578125,0.019775390625,0.7633587786259541,0.8244274809160305,1.5267175572519083,6998,-8,-9,17.29852294921875,-0.028201532494176132,-0.011826,False,,False,,,,,32
2218.785,4.384000033999655,-0.946533203125,0.30810546875,0.0224609375,0.8244274809160305,1.2213740458015268,1.9236641221374045,6998,-3,1,17.29852294921875,-0.0395583737768037,0.001314,False,,False,,,,,32
2218.785,4.3859966380000515,-0.946533203125,0.30810546875,0.0224609375,0.8244274809160305,1.2213740458015268,1.9236641221374045,6998,-3,1,17.29852294921875,-0.0395583737768037,0.001314,False,,False,,,,,32
2218.785,4.388000352999825,-0.946533203125,0.30810546875,0.0224609375,0.8244274809160305,1.2213740458015268,1.9236641221374045,6998,-3,1,17.29852294921875,-0.0395583737768037,0.001314,False,,False,,,,,32
2218.79,4.390000826999767,-0.933349609375,0.306396484375,0.021728515625,0.7938931297709924,0.8244274809160305,1.83206106870229,6998,0,-2,17.29852294921875,-0.05028354575746137,-0.002628,False,,False,,,,,32
2218.79,4.392003263999868,-0.933349609375,0.306396484375,0.021728515625,0.7938931297709924,0.8244274809160305,1.83206106870229,6998,0,-2,17.29852294921875,-0.05028354575746137,-0.002628,False,,False,,,,,32
2218.795,4.394006128000001,-0.941650390625,0.30908203125,0.019287109375,0.8549618320610687,0.9465648854961831,1.8015267175572518,6997,3,-6,17.296051025390625,-0.06032452316042103,-0.007884,False,,False,,,,,32
2218.795,4.3960040089996255,-0.941650390625,0.30908203125,0.019287109375,0.8549618320610687,0.9465648854961831,1.8015267175572518,6997,3,-6,17.296051025390625,-0.06032452316042103,-0.007884,False,,False,,,,,32
2218.795,4.398007186999621,-0.941650390625,0.30908203125,0.019287109375,0.8549618320610687,0.9465648854961831,1.8015267175572518,6997,3,-6,17.296051025390625,-0.06032452316042103,-0.007884,False,,False,,,,,32
2218.8,4.400012550999691,-0.939208984375,0.310791015625,0.01904296875,1.0687022900763359,0.7633587786259541,1.7404580152671756,6995,-5,-2,17.291107177734375,-0.07501875702869651,-0.002628,False,,False,,,,,32
2218.8,4.402021579999655,-0.939208984375,0.310791015625,0.01904296875,1.0687022900763359,0.7633587786259541,1.7404580152671756,6995,-5,-2,17.291107177734375,-0.07501875702869651,-0.002628,False,,False,,,,,32
2218.805,4.404014072999871,-0.940185546875,0.310791015625,0.0224609375,0.8244274809160305,0.7938931297709924,1.648854961832061,6995,-5,-2,17.291107177734375,-0.09518624465450308,-0.002628,False,,False,,,,,32
2218.805,4.406012937000014,-0.940185546875,0.310791015625,0.0224609375,0.8244274809160305,0.7938931297709924,1.648854961832061,6995,-5,-2,17.291107177734375,-0.09518624465450308,-0.002628,False,,False,,,,,32
2218.805,4.40801537399966,-0.940185546875,0.310791015625,0.0224609375,0.8244274809160305,0.7938931297709924,1.648854961832061,6995,-5,-2,17.291107177734375,-0.09518624465450308,-0.002628,False,,False,,,,,32
2218.81,4.410018884999772,-0.9462890625,0.316162109375,0.02783203125,1.1908396946564885,1.0687022900763359,1.83206106870229,6995,-10,2,17.291107177734375,-0.11427216652957309,0.002628,False,,False,,,,,32
2218.81,4.412016322999989,-0.9462890625,0.316162109375,0.02783203125,1.1908396946564885,1.0687022900763359,1.83206106870229,6995,-10,2,17.291107177734375,-0.11427216652957309,0.002628,False,,False,,,,,32
2218.815,4.414021018999847,-0.93994140625,0.311279296875,0.021240234375,1.2213740458015268,0.549618320610687,2.045801526717557,6994,-5,4,17.28863525390625,-0.1303856247148109,0.005256,False,,False,,,,,32
2218.815,4.416023178999694,-0.93994140625,0.311279296875,0.021240234375,1.2213740458015268,0.549618320610687,2.045801526717557,6994,-5,4,17.28863525390625,-0.1303856247148109,0.005256,False,,False,,,,,32
2218.815,4.418024596999658,-0.93994140625,0.311279296875,0.021240234375,1.2213740458015268,0.549618320610687,2.045801526717557,6994,-5,4,17.28863525390625,-0.1303856247148109,0.005256,False,,False,,,,,32
2218.82,4.420025108999653,-0.951904296875,0.312255859375,0.019287109375,0.5801526717557252,0.6106870229007634,1.7709923664122136,6992,-16,-5,17.28369140625,-0.1491486720859542,-0.0065699999999999995,False,,False,,,,,32
2218.82,4.422025028000007,-0.951904296875,0.312255859375,0.019287109375,0.5801526717557252,0.6106870229007634,1.7709923664122136,6992,-16,-5,17.28369140625,-0.1491486720859542,-0.0065699999999999995,False,,False,,,,,32
2218.8250000000003,4.424027723999643,-0.948486328125,0.316650390625,0.019775390625,0.8244274809160305,0.42748091603053434,1.4351145038167938,6992,-5,-6,17.28369140625,-0.17164859594648002,-0.007884,False,,False,,,,,32
2218.8250000000003,4.4260267729996485,-0.948486328125,0.316650390625,0.019775390625,0.8244274809160305,0.42748091603053434,1.4351145038167938,6992,-5,-6,17.28369140625,-0.17164859594648002,-0.007884,False,,False,,,,,32
2218.8250000000003,4.428029950999644,-0.948486328125,0.316650390625,0.019775390625,0.8244274809160305,0.42748091603053434,1.4351145038167938,6992,-5,-6,17.28369140625,-0.17164859594648002,-0.007884,False,,False,,,,,32
2218.83,4.430032165999819,-0.947998046875,0.320556640625,0.021240234375,1.129770992366412,0.7022900763358778,1.4045801526717556,6992,1,0,17.28369140625,-0.19157950150293312,0.0,False,,False,,,,,32
2218.83,4.43203073299992,-0.947998046875,0.320556640625,0.021240234375,1.129770992366412,0.7022900763358778,1.4045801526717556,6992,1,0,17.28369140625,-0.19157950150293312,0.0,False,,False,,,,,32
2218.835,4.434035707000021,-0.9482421875,0.3203125,0.025634765625,1.3129770992366412,0.916030534351145,1.3435114503816794,6990,-1,-4,17.27874755859375,-0.20907093850455732,-0.005256,False,,False,,,,,32
2218.835,4.436035329999868,-0.9482421875,0.3203125,0.025634765625,1.3129770992366412,0.916030534351145,1.3435114503816794,6990,-1,-4,17.27874755859375,-0.20907093850455732,-0.005256,False,,False,,,,,32
2218.835,4.438110580999819,-0.9482421875,0.3203125,0.025634765625,1.3129770992366412,0.916030534351145,1.3435114503816794,6990,-1,-4,17.27874755859375,-0.20907093850455732,-0.005256,False,,False,,,,,32
2218.84,4.440109517999645,-0.9462890625,0.314697265625,0.026611328125,1.3435114503816794,0.549618320610687,1.4045801526717556,6986,-10,-4,17.26885986328125,-0.23500972853835328,-0.005256,False,,False,,,,,32
2218.84,4.442110288999629,-0.9462890625,0.314697265625,0.026611328125,1.3435114503816794,0.549618320610687,1.4045801526717556,6986,-10,-4,17.26885986328125,-0.23500972853835328,-0.005256,False,,False,,,,,32
2218.8450000000003,4.4441152629997305,-0.944580078125,0.312744140625,0.02734375,1.0076335877862594,0.5801526717557252,1.648854961832061,6985,-6,1,17.266387939453125,-0.2730162318874872,0.001314,False,,False,,,,,32
2218.8450000000003,4.4461136449999685,-0.944580078125,0.312744140625,0.02734375,1.0076335877862594,0.5801526717557252,1.648854961832061,6985,-6,1,17.266387939453125,-0.2730162318874872,0.001314,False,,False,,,,,32
2218.8450000000003,4.448118970999985,-0.944580078125,0.312744140625,0.02734375,1.0076335877862594,0.5801526717557252,1.648854961832061,6985,-6,1,17.266387939453125,-0.2730162318874872,0.001314,False,,False,,,,,32
2218.85,4.450120611999864,-0.942626953125,0.309814453125,0.027099609375,0.42748091603053434,0.42748091603053434,2.198473282442748,6979,-25,-5,17.251556396484375,-0.3223655177621979,-0.0065699999999999995,False,,False,,,,,32
2218.85,4.452117919999637,-0.942626953125,0.309814453125,0.027099609375,0.42748091603053434,0.42748091603053434,2.198473282442748,6979,-25,-5,17.251556396484375,-0.3223655177621979,-0.0065699999999999995,False,,False,,,,,32
2218.855,4.454123300999981,-0.935546875,0.314208984375,0.0234375,-0.48854961832061067,0.7022900763358778,2.931297709923664,6969,-44,-1,17.226837158203125,-0.4001914092925369,-0.001314,False,,False,,,,,32
2218.855,4.456127053999808,-0.935546875,0.314208984375,0.0234375,-0.48854961832061067,0.7022900763358778,2.931297709923664,6969,-44,-1,17.226837158203125,-0.4001914092925369,-0.001314,False,,False,,,,,32
2218.855,4.458125027999813,-0.935546875,0.314208984375,0.0234375,-0.48854961832061067,0.7022900763358778,2.931297709923664,6969,-44,-1,17.226837158203125,-0.4001914092925369,-0.001314,False,,False,,,,,32
2218.86,4.460126131999914,-0.921142578125,0.336669921875,0.029052734375,-5.007633587786259,1.8015267175572518,5.923664122137405,6947,-94,-5,17.172454833984375,-0.545492554368074,-0.0065699999999999995,False,,False,,,,,32
2218.86,4.462127568999676,-0.921142578125,0.336669921875,0.029052734375,-5.007633587786259,1.8015267175572518,5.923664122137405,6947,-94,-5,17.172454833984375,-0.545492554368074,-0.0065699999999999995,False,,False,,,,,32
2218.8650000000002,4.464131006999651,-0.91748046875,0.331787109375,0.02587890625,-5.1603053435114505,1.6793893129770991,6.045801526717557,6920,-122,-3,17.105712890625,-0.8042644432469307,-0.003942,False,,False,,,,,32
2218.8650000000002,4.466129147999709,-0.91748046875,0.331787109375,0.02587890625,-5.1603053435114505,1.6793893129770991,6.045801526717557,6920,-122,-3,17.105712890625,-0.8042644432469307,-0.003942,False,,False,,,,,32
2218.8650000000002,4.468132565999895,-0.91748046875,0.331787109375,0.02587890625,-5.1603053435114505,1.6793893129770991,6.045801526717557,6920,-122,-3,17.105712890625,-0.8042644432469307,-0.003942,False,,False,,,,,32
2218.87,4.470133910999721,-0.92724609375,0.346923828125,0.0185546875,-2.900763358778626,1.9236641221374045,6.961832061068702,6894,-127,2,17.04144287109375,-1.1918837868350243,0.002628,False,,False,,,,,32
2218.87,4.472135236999748,-0.92724609375,0.346923828125,0.0185546875,-2.900763358778626,1.9236641221374045,6.961832061068702,6894,-127,2,17.04144287109375,-1.1918837868350243,0.002628,False,,False,,,,,32
2218.875,4.474138877999849,-0.907958984375,0.350341796875,0.01611328125,-4.2748091603053435,2.4732824427480917,8.366412213740457,6861,-152,-2,16.959869384765625,-1.6996615617438322,-0.002628,False,,False,,,,,32
2218.875,4.476143890000003,-0.907958984375,0.350341796875,0.01611328125,-4.2748091603053435,2.4732824427480917,8.366412213740457,6861,-152,-2,16.959869384765625,-1.6996615617438322,-0.002628,False,,False,,,,,32
2218.875,4.478156400999978,-0.907958984375,0.350341796875,0.01611328125,-4.2748091603053435,2.4732824427480917,8.366412213740457,6861,-152,-2,16.959869384765625,-1.6996615617438322,-0.002628,False,,False,,,,,32
2218.88,4.480156708999857,-0.953857421875,0.321533203125,0.0205078125,-0.8244274809160305,2.4732824427480917,7.0534351145038165,6833,-121,-1,16.890655517578125,-2.315001766404598,-0.001314,False,,False,,,,,32
2218.88,4.482157774999905,-0.953857421875,0.321533203125,0.0205078125,-0.8244274809160305,2.4732824427480917,7.0534351145038165,6833,-121,-1,16.890655517578125,-2.315001766404598,-0.001314,False,,False,,,,,32
2218.885,4.484160230999805,-0.92626953125,0.301025390625,0.013916015625,0.549618320610687,1.618320610687023,5.6183206106870225,6811,-92,-1,16.836273193359375,-2.995362461133549,-0.001314,False,,False,,,,,32
2218.885,4.486161612999695,-0.92626953125,0.301025390625,0.013916015625,0.549618320610687,1.618320610687023,5.6183206106870225,6811,-92,-1,16.836273193359375,-2.995362461133549,-0.001314,False,,False,,,,,32
2218.885,4.4881627169997955,-0.92626953125,0.301025390625,0.013916015625,0.549618320610687,1.618320610687023,5.6183206106870225,6811,-92,-1,16.836273193359375,-2.995362461133549,-0.001314,False,,False,,,,,32
2218.89,4.49016519099996,-0.9599609375,0.268798828125,0.022216796875,3.480916030534351,0.3053435114503817,2.9923664122137406,6799,-40,5,16.806610107421875,-3.6719573055929215,0.0065699999999999995,False,,False,,,,,32
2218.89,4.492165869000019,-0.9599609375,0.268798828125,0.022216796875,3.480916030534351,0.3053435114503817,2.9923664122137406,6799,-40,5,16.806610107421875,-3.6719573055929215,0.0065699999999999995,False,,False,,,,,32
2218.895,4.494169083999623,-0.97900390625,0.2451171875,0.028076171875,7.0534351145038165,0.2748091603053435,1.0687022900763359,6801,5,7,16.811553955078125,-4.263977638466587,0.009198,False,,False,,,,,32
2218.895,4.496167022000009,-0.97900390625,0.2451171875,0.028076171875,7.0534351145038165,0.2748091603053435,1.0687022900763359,6801,5,7,16.811553955078125,-4.263977638466587,0.009198,False,,False,,,,,32
2218.895,4.498171015000025,-0.97900390625,0.2451171875,0.028076171875,7.0534351145038165,0.2748091603053435,1.0687022900763359,6801,5,7,16.811553955078125,-4.263977638466587,0.009198,False,,False,,,,,32
2218.9,4.500171210999724,-0.962158203125,0.24169921875,0.041015625,1.4045801526717556,-0.15267175572519084,0.366412213740458,6802,0,6,16.81402587890625,-4.710368651515853,0.007884,False,,False,,,,,32
2218.9,4.502173889000005,-0.962158203125,0.24169921875,0.041015625,1.4045801526717556,-0.15267175572519084,0.366412213740458,6802,0,6,16.81402587890625,-4.710368651515853,0.007884,False,,False,,,,,32
2218.905,4.505333645000064,-0.977783203125,0.275146484375,0.043701171875,-0.4580152671755725,0.9465648854961831,0.549618320610687,6801,3,2,16.811553955078125,-5.010469684130847,0.002628,False,,False,,,,,32
2218.905,4.50732071199991,-0.977783203125,0.275146484375,0.043701171875,-0.4580152671755725,0.9465648854961831,0.549618320610687,6801,3,2,16.811553955078125,-5.010469684130847,0.002628,False,,False,,,,,32
2218.91,4.509328630999789,-0.9609375,0.302001953125,0.03369140625,-0.42748091603053434,0.5801526717557252,0.48854961832061067,6800,-1,0,16.80908203125,-5.192704468748535,0.0,False,,False,,,,,32
2218.91,4.511328735000006,-0.9609375,0.302001953125,0.03369140625,-0.42748091603053434,0.5801526717557252,0.48854961832061067,6800,-1,0,16.80908203125,-5.192704468748535,0.0,False,,False,,,,,32
2218.91,4.513325819999864,-0.9609375,0.302001953125,0.03369140625,-0.42748091603053434,0.5801526717557252,0.48854961832061067,6800,-1,0,16.80908203125,-5.192704468748535,0.0,False,,False,,,,,32
2218.915,4.5153287389998695,-0.950439453125,0.321533203125,0.02685546875,0.8854961832061068,-0.21374045801526717,0.5801526717557252,6802,-1,-5,16.81402587890625,-5.271833303670454,-0.0065699999999999995,False,,False,,,,,32
2218.915,4.517329638999854,-0.950439453125,0.321533203125,0.02685546875,0.8854961832061068,-0.21374045801526717,0.5801526717557252,6802,-1,-5,16.81402587890625,-5.271833303670454,-0.0065699999999999995,False,,False,,,,,32
2218.92,4.519333298999754,-0.953857421875,0.31787109375,0.01708984375,2.1374045801526718,-0.5801526717557252,0.9770992366412213,6801,1,1,16.811553955078125,-5.258125899115986,0.001314,False,,False,,,,,32
2218.92,4.521332328999961,-0.953857421875,0.31787109375,0.01708984375,2.1374045801526718,-0.5801526717557252,0.9770992366412213,6801,1,1,16.811553955078125,-5.258125899115986,0.001314,False,,False,,,,,32
2218.92,4.52333261800004,-0.953857421875,0.31787109375,0.01708984375,2.1374045801526718,-0.5801526717557252,0.9770992366412213,6801,1,1,16.811553955078125,-5.258125899115986,0.001314,False,,False,,,,,32
2218.925,4.525334054999803,-0.9541015625,0.30810546875,0.0166015625,2.015267175572519,-0.366412213740458,1.1908396946564885,6802,0,-1,16.81402587890625,-5.16868677788177,-0.001314,False,,False,,,,,32
2218.925,4.527338585000052,-0.9541015625,0.30810546875,0.0166015625,2.015267175572519,-0.366412213740458,1.1908396946564885,6802,0,-1,16.81402587890625,-5.16868677788177,-0.001314,False,,False,,,,,32
2218.93,4.529341245000069,-0.95654296875,0.300537109375,0.01904296875,1.6793893129770991,0.0,1.4045801526717556,6801,3,1,16.811553955078125,-5.0189326372405425,0.001314,False,,False,,,,,32
2218.93,4.53134027499982,-0.95654296875,0.300537109375,0.01904296875,1.6793893129770991,0.0,1.4045801526717556,6801,3,1,16.811553955078125,-5.0189326372405425,0.001314,False,,False,,,,,32
2218.93,4.533339896999678,-0.95654296875,0.300537109375,0.01904296875,1.6793893129770991,0.0,1.4045801526717556,6801,3,1,16.811553955078125,-5.0189326372405425,0.001314,False,,False,,,,,32
2218.935,4.535346130999642,-0.95263671875,0.29833984375,0.017333984375,1.4351145038167938,0.3969465648854962,1.4045801526717556,6801,2,2,16.811553955078125,-4.822643820435442,0.002628,False,,False,,,,,32
2218.935,4.537344771999869,-0.95263671875,0.29833984375,0.017333984375,1.4351145038167938,0.3969465648854962,1.4045801526717556,6801,2,2,16.811553955078125,-4.822643820435442,0.002628,False,,False,,,,,32
2218.94,4.5393490239998755,-0.944580078125,0.29931640625,0.01513671875,0.549618320610687,1.5572519083969465,1.4351145038167938,6801,-1,4,16.811553955078125,-4.590240608916283,0.005256,False,,False,,,,,32
2218.94,4.541504922000058,-0.944580078125,0.29931640625,0.01513671875,0.549618320610687,1.5572519083969465,1.4351145038167938,6801,-1,4,16.811553955078125,-4.590240608916283,0.005256,False,,False,,,,,32
2218.945,4.543530136999834,-0.94677734375,0.298095703125,0.01806640625,0.7022900763358778,1.8931297709923662,1.6793893129770991,6802,3,0,16.81402587890625,-4.327388842123037,0.0,False,,False,,,,,32
2218.945,4.545531684999787,-0.94677734375,0.298095703125,0.01806640625,0.7022900763358778,1.8931297709923662,1.6793893129770991,6802,3,0,16.81402587890625,-4.327388842123037,0.0,False,,False,,,,,32
2218.945,4.54753188199993,-0.94677734375,0.298095703125,0.01806640625,0.7022900763358778,1.8931297709923662,1.6793893129770991,6802,3,0,16.81402587890625,-4.327388842123037,0.0,False,,False,,,,,32
2218.9500000000003,4.549536077999619,-0.938720703125,0.2939453125,0.0185546875,1.0687022900763359,2.1374045801526718,1.7709923664122136,6801,4,5,16.811553955078125,-4.042853965086914,0.0065699999999999995,False,,False,,,,,32
2218.9500000000003,4.551537700999688,-0.938720703125,0.2939453125,0.0185546875,1.0687022900763359,2.1374045801526718,1.7709923664122136,6801,4,5,16.811553955078125,-4.042853965086914,0.0065699999999999995,False,,False,,,,,32
2218.955,4.553541989999758,-0.93212890625,0.295166015625,0.016357421875,0.7938931297709924,1.8015267175572518,1.7404580152671756,6802,6,5,16.81402587890625,-3.746078868998076,0.0065699999999999995,False,,False,,,,,32
2218.955,4.555541093999636,-0.93212890625,0.295166015625,0.016357421875,0.7938931297709924,1.8015267175572518,1.7404580152671756,6802,6,5,16.81402587890625,-3.746078868998076,0.0065699999999999995,False,,False,,,,,32
2218.955,4.5576281409998955,-0.93212890625,0.295166015625,0.016357421875,0.7938931297709924,1.8015267175572518,1.7404580152671756,6802,6,5,16.81402587890625,-3.746078868998076,0.0065699999999999995,False,,False,,,,,32
2218.96,4.559630967999965,-0.93115234375,0.291015625,0.020751953125,0.183206106870229,1.5572519083969465,2.045801526717557,6801,1,4,16.811553955078125,-3.4433557856291723,0.005256,False,,False,,,,,32
2218.96,4.5616406829999505,-0.93115234375,0.291015625,0.020751953125,0.183206106870229,1.5572519083969465,2.045801526717557,6801,1,4,16.811553955078125,-3.4433557856291723,0.005256,False,,False,,,,,32
2218.965,4.563631823999913,-0.94287109375,0.293212890625,0.02734375,0.3053435114503817,1.618320610687023,2.259541984732824,6801,0,8,16.811553955078125,-3.141829126995261,0.010512,False,,False,,,,,32
2218.965,4.5656356499998765,-0.94287109375,0.293212890625,0.02734375,0.3053435114503817,1.618320610687023,2.259541984732824,6801,0,8,16.811553955078125,-3.141829126995261,0.010512,False,,False,,,,,32
2218.965,4.567633698000009,-0.94287109375,0.293212890625,0.02734375,0.3053435114503817,1.618320610687023,2.259541984732824,6801,0,8,16.811553955078125,-3.141829126995261,0.010512,False,,False,,,,,32
2218.9700000000003,4.569638376000057,-0.935302734375,0.295166015625,0.030029296875,0.0916030534351145,1.648854961832061,2.5038167938931295,6801,-3,1,16.811553955078125,-2.8456722273000867,0.001314,False,,False,,,,,32
2218.9700000000003,4.571638090999841,-0.935302734375,0.295166015625,0.030029296875,0.0916030534351145,1.648854961832061,2.5038167938931295,6801,-3,1,16.811553955078125,-2.8456722273000867,0.001314,False,,False,,,,,32
2218.975,4.573640898999656,-0.93359375,0.294189453125,0.02490234375,-0.42748091603053434,1.0381679389312977,2.5343511450381677,6801,-2,-4,16.811553955078125,-2.556510630969782,-0.005256,False,,False,,,,,32
2218.975,4.5756406329996935,-0.93359375,0.294189453125,0.02490234375,-0.42748091603053434,1.0381679389312977,2.5343511450381677,6801,-2,-4,16.811553955078125,-2.556510630969782,-0.005256,False,,False,,,,,32
2218.975,4.577643607000027,-0.93359375,0.294189453125,0.02490234375,-0.42748091603053434,1.0381679389312977,2.5343511450381677,6801,-2,-4,16.811553955078125,-2.556510630969782,-0.005256,False,,False,,,,,32
2218.98,4.579645210999843,-0.94140625,0.29931640625,0.02392578125,-0.48854961832061067,0.9465648854961831,2.931297709923664,6801,0,-4,16.811553955078125,-2.277394379094543,-0.005256,False,,False,,,,,32
2218.98,4.581646018999891,-0.94140625,0.29931640625,0.02392578125,-0.48854961832061067,0.9465648854961831,2.931297709923664,6801,0,-4,16.811553955078125,-2.277394379094543,-0.005256,False,,False,,,,,32
2218.985,4.583647085999928,-0.952392578125,0.29833984375,0.02587890625,-0.8854961832061068,0.5190839694656488,2.8091603053435112,6801,5,-5,16.811553955078125,-2.010731385957362,-0.0065699999999999995,False,,False,,,,,32
2218.985,4.585649170999659,-0.952392578125,0.29833984375,0.02587890625,-0.8854961832061068,0.5190839694656488,2.8091603053435112,6801,5,-5,16.811553955078125,-2.010731385957362,-0.0065699999999999995,False,,False,,,,,32
2218.985,4.587648774999707,-0.952392578125,0.29833984375,0.02587890625,-0.8854961832061068,0.5190839694656488,2.8091603053435112,6801,5,-5,16.811553955078125,-2.010731385957362,-0.0065699999999999995,False,,False,,,,,32
2218.9900000000002,4.5896522309999455,-0.9580078125,0.30615234375,0.0244140625,-0.9465648854961831,0.7022900763358778,2.9618320610687023,6800,-4,-1,16.80908203125,-1.760147610432756,-0.001314,False,,False,,,,,32
2218.9900000000002,4.591653594000036,-0.9580078125,0.30615234375,0.0244140625,-0.9465648854961831,0.7022900763358778,2.9618320610687023,6800,-4,-1,16.80908203125,-1.760147610432756,-0.001314,False,,False,,,,,32
2218.995,4.593817548000061,-0.95361328125,0.31640625,0.01904296875,-0.9770992366412213,0.7938931297709924,2.687022900763359,6802,1,4,16.81402587890625,-1.5248646952037717,0.005256,False,,False,,,,,32
2218.995,4.595815429999675,-0.95361328125,0.31640625,0.01904296875,-0.9770992366412213,0.7938931297709924,2.687022900763359,6802,1,4,16.81402587890625,-1.5248646952037717,0.005256,False,,False,,,,,32
2218.995,4.5978184409996175,-0.95361328125,0.31640625,0.01904296875,-0.9770992366412213,0.7938931297709924,2.687022900763359,6802,1,4,16.81402587890625,-1.5248646952037717,0.005256,False,,False,,,,,32
2219.0,4.59982167499993,-0.95068359375,0.3232421875,0.0234375,-0.5801526717557252,1.0076335877862594,2.4732824427480917,6802,6,0,16.81402587890625,-1.300428346101179,0.0,False,,False,,,,,32
2219.0,4.60181929700002,-0.95068359375,0.3232421875,0.0234375,-0.5801526717557252,1.0076335877862594,2.4732824427480917,6802,6,0,16.81402587890625,-1.300428346101179,0.0,False,,False,,,,,32
2219.005,4.6038239009999415,-0.95263671875,0.321533203125,0.025146484375,-0.12213740458015267,1.2213740458015268,2.4732824427480917,6800,-3,2,16.80908203125,-1.093695403547016,0.002628,False,,False,,,,,32
2219.005,4.60582263499964,-0.95263671875,0.321533203125,0.025146484375,-0.12213740458015267,1.2213740458015268,2.4732824427480917,6800,-3,2,16.80908203125,-1.093695403547016,0.002628,False,,False,,,,,32
2219.005,4.60782679399972,-0.95263671875,0.321533203125,0.025146484375,-0.12213740458015267,1.2213740458015268,2.4732824427480917,6800,-3,2,16.80908203125,-1.093695403547016,0.002628,False,,False,,,,,32
2219.01,4.609829805999652,-0.9462890625,0.32177734375,0.02587890625,-0.061068702290076333,1.1603053435114503,2.564885496183206,6800,0,2,16.80908203125,-0.9119403282941003,0.002628,False,,False,,,,,32
2219.01,4.611829038999986,-0.9462890625,0.32177734375,0.02587890625,-0.061068702290076333,1.1603053435114503,2.564885496183206,6800,0,2,16.80908203125,-0.9119403282941003,0.002628,False,,False,,,,,32
2219.015,4.613831383999695,-0.947021484375,0.31787109375,0.026123046875,0.0916030534351145,0.9770992366412213,2.4427480916030535,6800,-4,-5,16.80908203125,-0.7501482928846734,-0.0065699999999999995,False,,False,,,,,32
2219.015,4.615830265999648,-0.947021484375,0.31787109375,0.026123046875,0.0916030534351145,0.9770992366412213,2.4427480916030535,6800,-4,-5,16.80908203125,-0.7501482928846734,-0.0065699999999999995,False,,False,,,,,32
2219.015,4.617835017999823,-0.947021484375,0.31787109375,0.026123046875,0.0916030534351145,0.9770992366412213,2.4427480916030535,6800,-4,-5,16.80908203125,-0.7501482928846734,-0.0065699999999999995,False,,False,,,,,32
2219.02,4.61983597399967,-0.946044921875,0.318603515625,0.03125,-0.030534351145038167,0.916030534351145,2.4732824427480917,6800,-5,-1,16.80908203125,-0.6038317766973538,-0.001314,False,,False,,,,,32
2219.02,4.621837891999803,-0.946044921875,0.318603515625,0.03125,-0.030534351145038167,0.916030534351145,2.4732824427480917,6800,-5,-1,16.80908203125,-0.6038317766973538,-0.001314,False,,False,,,,,32
2219.025,4.6238405330000205,-0.939697265625,0.3193359375,0.028076171875,0.061068702290076333,0.7022900763358778,2.381679389312977,6801,6,0,16.811553955078125,-0.4708002243675724,0.0,False,,False,,,,,32
2219.025,4.625839063000058,-0.939697265625,0.3193359375,0.028076171875,0.061068702290076333,0.7022900763358778,2.381679389312977,6801,6,0,16.811553955078125,-0.4708002243675724,0.0,False,,False,,,,,32
2219.025,4.62784207499999,-0.939697265625,0.3193359375,0.028076171875,0.061068702290076333,0.7022900763358778,2.381679389312977,6801,6,0,16.811553955078125,-0.4708002243675724,0.0,False,,False,,,,,32
2219.03,4.6298457529996995,-0.93896484375,0.321533203125,0.03125,-0.15267175572519084,0.7633587786259541,2.4427480916030535,6801,0,0,16.811553955078125,-0.34902728750593426,0.0,False,,False,,,,,32
2219.03,4.631843634999768,-0.93896484375,0.321533203125,0.03125,-0.15267175572519084,0.7633587786259541,2.4427480916030535,6801,0,0,16.811553955078125,-0.34902728750593426,0.0,False,,False,,,,,32
2219.035,4.633848830999796,-0.9404296875,0.32080078125,0.029541015625,0.0916030534351145,0.6412213740458015,2.5343511450381677,6801,0,3,16.811553955078125,-0.2402344522774616,0.003942,False,,False,,,,,32
2219.035,4.635847119999653,-0.9404296875,0.32080078125,0.029541015625,0.0916030534351145,0.6412213740458015,2.5343511450381677,6801,0,3,16.811553955078125,-0.2402344522774616,0.003942,False,,False,,,,,32
2219.035,4.637849964999987,-0.9404296875,0.32080078125,0.029541015625,0.0916030534351145,0.6412213740458015,2.5343511450381677,6801,0,3,16.811553955078125,-0.2402344522774616,0.003942,False,,False,,,,,32
2219.04,4.63985245799995,-0.9375,0.320068359375,0.026123046875,0.6717557251908397,0.3053435114503817,2.4427480916030535,6801,-2,-4,16.811553955078125,-0.1456748761358153,-0.005256,False,,False,,,,,32
2219.04,4.64185395100003,-0.9375,0.320068359375,0.026123046875,0.6717557251908397,0.3053435114503817,2.4427480916030535,6801,-2,-4,16.811553955078125,-0.1456748761358153,-0.005256,False,,False,,,,,32
2219.045,4.643855480999719,-0.939697265625,0.319580078125,0.026611328125,0.732824427480916,0.366412213740458,2.259541984732824,6801,-1,1,16.811553955078125,-0.06440098201511987,0.001314,False,,False,,,,,32
2219.045,4.645859195999947,-0.939697265625,0.319580078125,0.026611328125,0.732824427480916,0.366412213740458,2.259541984732824,6801,-1,1,16.811553955078125,-0.06440098201511987,0.001314,False,,False,,,,,32
2219.045,4.647897372999978,-0.939697265625,0.319580078125,0.026611328125,0.732824427480916,0.366412213740458,2.259541984732824,6801,-1,1,16.811553955078125,-0.06440098201511987,0.001314,False,,False,,,,,32
2219.05,4.649898570000005,-0.94287109375,0.3193359375,0.0283203125,0.9770992366412213,0.3969465648854962,2.198473282442748,6800,-8,6,16.80908203125,0.00278248608639342,0.007884,False,,False,,,,,32
2219.05,4.651899988999958,-0.94287109375,0.3193359375,0.0283203125,0.9770992366412213,0.3969465648854962,2.198473282442748,6800,-8,6,16.80908203125,0.00278248608639342,0.007884,False,,False,,,,,32
2219.055,4.6539071299998795,-0.939208984375,0.3232421875,0.024169921875,0.9465648854961831,0.183206106870229,2.229007633587786,6801,-3,0,16.811553955078125,0.05719643956830164,0.0,False,,False,,,,,32
2219.055,4.655909103999875,-0.939208984375,0.3232421875,0.024169921875,0.9465648854961831,0.183206106870229,2.229007633587786,6801,-3,0,16.811553955078125,0.05719643956830164,0.0,False,,False,,,,,32
2219.055,4.657912429999669,-0.939208984375,0.3232421875,0.024169921875,0.9465648854961831,0.183206106870229,2.229007633587786,6801,-3,0,16.811553955078125,0.05719643956830164,0.0,False,,False,,,,,32
2219.06,4.659913478999897,-0.9423828125,0.3232421875,0.02197265625,1.282442748091603,0.15267175572519084,2.229007633587786,6800,-8,2,16.80908203125,0.10192221384436266,0.002628,False,,False,,,,,32
2219.06,4.661912711999776,-0.9423828125,0.3232421875,0.02197265625,1.282442748091603,0.15267175572519084,2.229007633587786,6800,-8,2,16.80908203125,0.10192221384436266,0.002628,False,,False,,,,,32
2219.065,4.663915204999739,-0.938720703125,0.324951171875,0.02197265625,1.7099236641221374,0.24427480916030533,2.229007633587786,6800,-5,0,16.80908203125,0.1360987880484122,0.0,False,,False,,,,,32
2219.065,4.665914234999946,-0.938720703125,0.324951171875,0.02197265625,1.7099236641221374,0.24427480916030533,2.229007633587786,6800,-5,0,16.80908203125,0.1360987880484122,0.0,False,,False,,,,,32
2219.065,4.667918654000005,-0.938720703125,0.324951171875,0.02197265625,1.7099236641221374,0.24427480916030533,2.229007633587786,6800,-5,0,16.80908203125,0.1360987880484122,0.0,False,,False,,,,,32
2219.07,4.669931608999832,-0.937744140625,0.325927734375,0.023193359375,1.984732824427481,0.030534351145038167,2.0763358778625953,6801,3,1,16.811553955078125,0.16273916301531588,0.001314,False,,False,,,,,32
2219.07,4.67192284299972,-0.937744140625,0.325927734375,0.023193359375,1.984732824427481,0.030534351145038167,2.0763358778625953,6801,3,1,16.811553955078125,0.16273916301531588,0.001314,False,,False,,,,,32
2219.0750000000003,4.673928409999917,-0.944580078125,0.32177734375,0.023681640625,2.259541984732824,0.0,2.16793893129771,6801,1,-1,16.811553955078125,0.1862654467801724,-0.001314,False,,False,,,,,32
2219.0750000000003,4.677173164999658,-0.944580078125,0.32177734375,0.023681640625,2.259541984732824,0.0,2.16793893129771,6801,1,-1,16.811553955078125,0.1862654467801724,-0.001314,False,,False,,,,,32
2219.08,4.679176249999728,-0.939453125,0.322509765625,0.024169921875,3.0839694656488548,0.061068702290076333,2.045801526717557,6801,5,1,16.811553955078125,0.20505334753534532,0.001314,False,,False,,,,,32
2219.08,4.681173575999765,-0.939453125,0.322509765625,0.024169921875,3.0839694656488548,0.061068702290076333,2.045801526717557,6801,5,1,16.811553955078125,0.20505334753534532,0.001314,False,,False,,,,,32
2219.08,4.68317686599994,-0.939453125,0.322509765625,0.024169921875,3.0839694656488548,0.061068702290076333,2.045801526717557,6801,5,1,16.811553955078125,0.20505334753534532,0.001314,False,,False,,,,,32
2219.085,4.68517956200003,-0.94140625,0.32177734375,0.027587890625,3.114503816793893,0.0,1.9236641221374045,6800,-5,-4,16.80908203125,0.21602117747293598,-0.005256,False,,False,,,,,32
2219.085,4.687177295999845,-0.94140625,0.32177734375,0.027587890625,3.114503816793893,0.0,1.9236641221374045,6800,-5,-4,16.80908203125,0.21602117747293598,-0.005256,False,,False,,,,,32
2219.09,4.689181400000052,-0.937744140625,0.322265625,0.029052734375,3.3587786259541983,0.21374045801526717,1.8931297709923662,6799,-7,2,16.806610107421875,0.21670229132897403,0.002628,False,,False,,,,,32
2219.09,4.691181615000005,-0.937744140625,0.322265625,0.029052734375,3.3587786259541983,0.21374045801526717,1.8931297709923662,6799,-7,2,16.806610107421875,0.21670229132897403,0.002628,False,,False,,,,,32
2219.09,4.693181459999778,-0.937744140625,0.322265625,0.029052734375,3.3587786259541983,0.21374045801526717,1.8931297709923662,6799,-7,2,16.806610107421875,0.21670229132897403,0.002628,False,,False,,,,,32
2219.0950000000003,4.695187674999943,-0.944091796875,0.3251953125,0.028564453125,3.847328244274809,0.366412213740458,2.015267175572519,6799,-4,0,16.806610107421875,0.2087616881200081,0.0,False,,False,,,,,32
2219.0950000000003,4.697186371000043,-0.944091796875,0.3251953125,0.028564453125,3.847328244274809,0.366412213740458,2.015267175572519,6799,-4,0,16.806610107421875,0.2087616881200081,0.0,False,,False,,,,,32
2219.1,4.699189567999838,-0.9462890625,0.320556640625,0.026123046875,4.2748091603053435,-0.030534351145038167,2.381679389312977,6797,-7,-1,16.801666259765625,0.19371817492501134,-0.001314,False,,False,,,,,32
2219.1,4.701189430999875,-0.9462890625,0.320556640625,0.026123046875,4.2748091603053435,-0.030534351145038167,2.381679389312977,6797,-7,-1,16.801666259765625,0.19371817492501134,-0.001314,False,,False,,,,,32
2219.1,4.70319031300005,-0.9462890625,0.320556640625,0.026123046875,4.2748091603053435,-0.030534351145038167,2.381679389312977,6797,-7,-1,16.801666259765625,0.19371817492501134,-0.001314,False,,False,,,,,32
2219.105,4.705193323999993,-0.94384765625,0.313232421875,0.02587890625,4.030534351145038,-0.48854961832061067,2.687022900763359,6796,-3,3,16.7991943359375,0.1693651587397178,0.003942,False,,False,,,,,32
2219.105,4.707193668999935,-0.94384765625,0.313232421875,0.02587890625,4.030534351145038,-0.48854961832061067,2.687022900763359,6796,-3,3,16.7991943359375,0.1693651587397178,0.003942,False,,False,,,,,32
2219.11,4.709221160999732,-0.947021484375,0.3076171875,0.0263671875,3.7251908396946565,-0.5801526717557252,3.2061068702290076,6791,-18,-6,16.786834716796875,0.13040917627561527,-0.007884,False,,False,,,,,32
2219.11,4.711217246999695,-0.947021484375,0.3076171875,0.0263671875,3.7251908396946565,-0.5801526717557252,3.2061068702290076,6791,-18,-6,16.786834716796875,0.13040917627561527,-0.007884,False,,False,,,,,32
2219.11,4.713222665999638,-0.947021484375,0.3076171875,0.0263671875,3.7251908396946565,-0.5801526717557252,3.2061068702290076,6791,-18,-6,16.786834716796875,0.13040917627561527,-0.007884,False,,False,,,,,32
2219.1150000000002,4.7152224729998125,-0.94775390625,0.30810546875,0.026123046875,3.114503816793893,-0.6106870229007634,3.5725190839694654,6785,-31,-4,16.772003173828125,0.06546816970055516,-0.005256,False,,False,,,,,32
2219.1150000000002,4.717224521999924,-0.94775390625,0.30810546875,0.026123046875,3.114503816793893,-0.6106870229007634,3.5725190839694654,6785,-31,-4,16.772003173828125,0.06546816970055516,-0.005256,False,,False,,,,,32
2219.12,4.719228439999824,-0.938720703125,0.338134765625,0.03466796875,-0.6106870229007634,0.5801526717557252,5.984732824427481,6767,-81,-5,16.727508544921875,-0.05251531470225173,-0.0065699999999999995,False,,False,,,,,32
2219.12,4.721228229999724,-0.938720703125,0.338134765625,0.03466796875,-0.6106870229007634,0.5801526717557252,5.984732824427481,6767,-81,-5,16.727508544921875,-0.05251531470225173,-0.0065699999999999995,False,,False,,,,,32
2219.12,4.723226981999687,-0.938720703125,0.338134765625,0.03466796875,-0.6106870229007634,0.5801526717557252,5.984732824427481,6767,-81,-5,16.727508544921875,-0.05251531470225173,-0.0065699999999999995,False,,False,,,,,32
2219.125,4.7252321040000425,-0.90771484375,0.343505859375,0.027587890625,-4.030534351145038,0.8549618320610687,7.694656488549618,6735,-144,-1,16.648406982421875,-0.28302545637302484,-0.001314,False,,False,,,,,32
2219.125,4.727231096999731,-0.90771484375,0.343505859375,0.027587890625,-4.030534351145038,0.8549618320610687,7.694656488549618,6735,-144,-1,16.648406982421875,-0.28302545637302484,-0.001314,False,,False,,,,,32
2219.13,4.729236385999684,-0.920654296875,0.34375,0.026611328125,-4.2748091603053435,0.6412213740458015,7.572519083969465,6697,-163,-1,16.554473876953125,-0.6867647051832289,-0.001314,False,,False,,,,,32
2219.13,4.73123567499988,-0.920654296875,0.34375,0.026611328125,-4.2748091603053435,0.6412213740458015,7.572519083969465,6697,-163,-1,16.554473876953125,-0.6867647051832289,-0.001314,False,,False,,,,,32
2219.13,4.73323559399978,-0.920654296875,0.34375,0.026611328125,-4.2748091603053435,0.6412213740458015,7.572519083969465,6697,-163,-1,16.554473876953125,-0.6867647051832289,-0.001314,False,,False,,,,,32
2219.135,4.735238827999638,-0.91650390625,0.380126953125,0.018798828125,-4.67175572519084,2.564885496183206,9.587786259541984,6650,-203,8,16.43829345703125,-1.2923469698950842,0.010512,False,,False,,,,,32
2219.135,4.737238358000013,-0.91650390625,0.380126953125,0.018798828125,-4.67175572519084,2.564885496183206,9.587786259541984,6650,-203,8,16.43829345703125,-1.2923469698950842,0.010512,False,,False,,,,,32
2219.14,4.739242535999892,-0.912841796875,0.384521484375,0.0205078125,-4.519083969465648,3.633587786259542,11.114503816793892,6596,-249,-1,16.3048095703125,-2.1136412287607778,-0.001314,False,,False,,,,,32
2219.14,4.7412401029996545,-0.912841796875,0.384521484375,0.0205078125,-4.519083969465648,3.633587786259542,11.114503816793892,6596,-249,-1,16.3048095703125,-2.1136412287607778,-0.001314,False,,False,,,,,32
2219.14,4.743240243999935,-0.912841796875,0.384521484375,0.0205078125,-4.519083969465648,3.633587786259542,11.114503816793892,6596,-249,-1,16.3048095703125,-2.1136412287607778,-0.001314,False,,False,,,,,32
2219.145,4.745245032999719,-0.900390625,0.37841796875,0.01513671875,-5.343511450381679,2.5343511450381677,11.572519083969466,6535,-274,-6,16.154022216796875,-3.1573428711607203,-0.007884,False,,False,,,,,32
2219.145,4.7472422480000205,-0.900390625,0.37841796875,0.01513671875,-5.343511450381679,2.5343511450381677,11.572519083969466,6535,-274,-6,16.154022216796875,-3.1573428711607203,-0.007884,False,,False,,,,,32
2219.15,4.749247277999984,-0.90283203125,0.347412109375,0.011962890625,-4.213740458015267,2.8396946564885495,10.870229007633588,6471,-275,-3,15.995819091796875,-4.415092174374377,-0.003942,False,,False,,,,,32
2219.15,4.751246918999641,-0.90283203125,0.347412109375,0.011962890625,-4.213740458015267,2.8396946564885495,10.870229007633588,6471,-275,-3,15.995819091796875,-4.415092174374377,-0.003942,False,,False,,,,,32
2219.15,4.753247726999689,-0.90283203125,0.347412109375,0.011962890625,-4.213740458015267,2.8396946564885495,10.870229007633588,6471,-275,-3,15.995819091796875,-4.415092174374377,-0.003942,False,,False,,,,,32
2219.155,4.755249459999959,-0.923828125,0.35986328125,0.01904296875,-2.0763358778625953,3.633587786259542,10.381679389312977,6406,-285,0,15.83514404296875,-5.858884640435724,0.0,False,,False,,,,,32
2219.155,4.757251434999944,-0.923828125,0.35986328125,0.01904296875,-2.0763358778625953,3.633587786259542,10.381679389312977,6406,-285,0,15.83514404296875,-5.858884640435724,0.0,False,,False,,,,,32
2219.16,4.759256130999802,-0.9375,0.3212890625,0.028076171875,1.282442748091603,1.7099236641221374,7.786259541984733,6356,-273,-1,15.7115478515625,-7.41960816117115,-0.001314,False,,False,,,,,32
2219.16,4.761256049999702,-0.9375,0.3212890625,0.028076171875,1.282442748091603,1.7099236641221374,7.786259541984733,6356,-273,-1,15.7115478515625,-7.41960816117115,-0.001314,False,,False,,,,,32
2219.16,4.763253912999971,-0.9375,0.3212890625,0.028076171875,1.282442748091603,1.7099236641221374,7.786259541984733,6356,-273,-1,15.7115478515625,-7.41960816117115,-0.001314,False,,False,,,,,32
2219.165,4.765257553999618,-0.9501953125,0.2958984375,0.026123046875,5.099236641221374,1.8015267175572518,5.343511450381679,6306,-219,0,15.58795166015625,-9.003689820410296,0.0,False,,False,,,,,32
2219.165,4.767255879999993,-0.9501953125,0.2958984375,0.026123046875,5.099236641221374,1.8015267175572518,5.343511450381679,6306,-219,0,15.58795166015625,-9.003689820410296,0.0,False,,False,,,,,32
2219.17,4.769352353999693,-0.953369140625,0.2841796875,0.0390625,5.404580152671755,2.198473282442748,3.32824427480916,6258,-198,-8,15.46929931640625,-10.553939756713408,-0.010512,False,,False,,,,,32
2219.17,4.7712614029996985,-0.953369140625,0.2841796875,0.0390625,5.404580152671755,2.198473282442748,3.32824427480916,6258,-198,-8,15.46929931640625,-10.553939756713408,-0.010512,False,,False,,,,,32
2219.17,4.773263247999694,-0.953369140625,0.2841796875,0.0390625,5.404580152671755,2.198473282442748,3.32824427480916,6258,-198,-8,15.46929931640625,-10.553939756713408,-0.010512,False,,False,,,,,32
2219.175,4.775262388999636,-0.9794921875,0.292724609375,0.05712890625,6.3206106870229,1.7099236641221374,2.3206106870229006,6216,-182,-10,15.365478515625,-12.03550330751577,-0.013139999999999999,False,,False,,,,,32
2219.175,4.777266177999991,-0.9794921875,0.292724609375,0.05712890625,6.3206106870229,1.7099236641221374,2.3206106870229006,6216,-182,-10,15.365478515625,-12.03550330751577,-0.013139999999999999,False,,False,,,,,32
2219.18,4.779268725999827,-0.99267578125,0.2998046875,0.066650390625,7.7251908396946565,1.4961832061068703,-0.2748091603053435,6183,-147,1,15.283905029296875,-13.396919275552237,0.001314,False,,False,,,,,32
2219.18,4.7812690159998965,-0.99267578125,0.2998046875,0.066650390625,7.7251908396946565,1.4961832061068703,-0.2748091603053435,6183,-147,1,15.283905029296875,-13.396919275552237,0.001314,False,,False,,,,,32
2219.18,4.783268174999648,-0.99267578125,0.2998046875,0.066650390625,7.7251908396946565,1.4961832061068703,-0.2748091603053435,6183,-147,1,15.283905029296875,-13.396919275552237,0.001314,False,,False,,,,,32
2219.185,4.7852727979998235,-0.951904296875,0.28076171875,0.046875,5.801526717557252,0.8549618320610687,-1.465648854961832,6145,-162,-5,15.189971923828125,-14.604007852506582,-0.0065699999999999995,False,,False,,,,,32
2219.185,4.787271808999776,-0.951904296875,0.28076171875,0.046875,5.801526717557252,0.8549618320610687,-1.465648854961832,6145,-162,-5,15.189971923828125,-14.604007852506582,-0.0065699999999999995,False,,False,,,,,32
2219.19,4.789276245999645,-0.988037109375,0.307861328125,0.05615234375,6.290076335877862,0.732824427480916,-1.3435114503816794,6107,-170,-4,15.096038818359375,-15.666200111978124,-0.005256,False,,False,,,,,32
2219.19,4.791273349999756,-0.988037109375,0.307861328125,0.05615234375,6.290076335877862,0.732824427480916,-1.3435114503816794,6107,-170,-4,15.096038818359375,-15.666200111978124,-0.005256,False,,False,,,,,32
2219.19,4.793277880000005,-0.988037109375,0.307861328125,0.05615234375,6.290076335877862,0.732824427480916,-1.3435114503816794,6107,-170,-4,15.096038818359375,-15.666200111978124,-0.005256,False,,False,,,,,32
2219.195,4.795276410000042,-0.95458984375,0.300537109375,0.035888671875,4.67175572519084,1.5877862595419847,-1.7404580152671756,6067,-174,-3,14.997161865234375,-16.604233673995626,-0.003942,False,,False,,,,,32
2219.195,4.797280662000048,-0.95458984375,0.300537109375,0.035888671875,4.67175572519084,1.5877862595419847,-1.7404580152671756,6067,-174,-3,14.997161865234375,-16.604233673995626,-0.003942,False,,False,,,,,32
2219.2000000000003,4.799282562999906,-0.96435546875,0.308349609375,0.020263671875,7.3893129770992365,1.4961832061068703,-2.6564885496183206,6027,-176,1,14.898284912109375,-17.43189683408054,0.001314,False,,False,,,,,32
2219.2000000000003,4.801282906999859,-0.96435546875,0.308349609375,0.020263671875,7.3893129770992365,1.4961832061068703,-2.6564885496183206,6027,-176,1,14.898284912109375,-17.43189683408054,0.001314,False,,False,,,,,32
2219.2000000000003,4.803282232999663,-0.96435546875,0.308349609375,0.020263671875,7.3893129770992365,1.4961832061068703,-2.6564885496183206,6027,-176,1,14.898284912109375,-17.43189683408054,0.001314,False,,False,,,,,32
2219.205,4.80528633699987,-0.981689453125,0.30517578125,0.024658203125,8.091603053435113,0.7938931297709924,-2.8091603053435112,5985,-179,-2,14.794464111328125,-18.16233180603026,-0.002628,False,,False,,,,,32
2219.205,4.807285552999929,-0.981689453125,0.30517578125,0.024658203125,8.091603053435113,0.7938931297709924,-2.8091603053435112,5985,-179,-2,14.794464111328125,-18.16233180603026,-0.002628,False,,False,,,,,32
2219.21,4.8092898229997445,-0.960693359375,0.288818359375,0.013671875,5.435114503816794,2.4732824427480917,-2.381679389312977,5938,-212,1,14.67828369140625,-18.81690204905408,0.001314,False,,False,,,,,32
2219.21,4.811291500999687,-0.960693359375,0.288818359375,0.013671875,5.435114503816794,2.4732824427480917,-2.381679389312977,5938,-212,1,14.67828369140625,-18.81690204905408,0.001314,False,,False,,,,,32
2219.215,4.813594304999697,-0.988525390625,0.29541015625,0.0205078125,5.343511450381679,2.16793893129771,-2.5038167938931295,5890,-211,6,14.55963134765625,-19.421753707408794,0.007884,False,,False,,,,,32
2219.215,4.815591019999829,-0.988525390625,0.29541015625,0.0205078125,5.343511450381679,2.16793893129771,-2.5038167938931295,5890,-211,6,14.55963134765625,-19.421753707408794,0.007884,False,,False,,,,,32
2219.215,4.817594180000015,-0.988525390625,0.29541015625,0.0205078125,5.343511450381679,2.16793893129771,-2.5038167938931295,5890,-211,6,14.55963134765625,-19.421753707408794,0.007884,False,,False,,,,,32
2219.2200000000003,4.81959615400001,-0.977783203125,0.3154296875,0.01806640625,5.1603053435114505,4.580152671755725,-1.9236641221374045,5840,-220,11,14.43603515625,-19.99233409616591,0.014454,False,,False,,,,,32
2219.225,4.823560936999911,-0.92822265625,0.272705078125,-0.008544921875,4.641221374045801,2.717557251908397,-3.0534351145038165,5787,-227,0,14.305023193359375,-20.540281398407426,0.0,False,,False,,,,,32
2219.225,4.825564799999938,-0.92822265625,0.272705078125,-0.008544921875,4.641221374045801,2.717557251908397,-3.0534351145038165,5787,-227,0,14.305023193359375,-20.540281398407426,0.0,False,,False,,,,,32
2219.225,4.827569329999733,-0.92822265625,0.272705078125,-0.008544921875,4.641221374045801,2.717557251908397,-3.0534351145038165,5787,-227,0,14.305023193359375,-20.540281398407426,0.0,False,,False,,,,,32
2219.23,4.829571155999929,-0.948974609375,0.2919921875,0.014404296875,5.221374045801526,4.061068702290076,-3.3587786259541983,5731,-247,4,14.166595458984375,-21.081038279288457,0.005256,False,,False,,,,,32
2219.23,4.831571296999755,-0.948974609375,0.2919921875,0.014404296875,5.221374045801526,4.061068702290076,-3.3587786259541983,5731,-247,4,14.166595458984375,-21.081038279288457,0.005256,False,,False,,,,,32
2219.23,4.833572955999898,-0.948974609375,0.2919921875,0.014404296875,5.221374045801526,4.061068702290076,-3.3587786259541983,5731,-247,4,14.166595458984375,-21.081038279288457,0.005256,False,,False,,,,,32
2219.235,4.835575652999978,-0.941650390625,0.309326171875,0.01953125,4.396946564885496,4.213740458015267,-2.16793893129771,5668,-279,-5,14.0108642578125,-21.63658974120503,-0.0065699999999999995,False,,False,,,,,32
2219.235,4.837573960999634,-0.941650390625,0.309326171875,0.01953125,4.396946564885496,4.213740458015267,-2.16793893129771,5668,-279,-5,14.0108642578125,-21.63658974120503,-0.0065699999999999995,False,,False,,,,,32
2219.2400000000002,4.839578027999778,-0.898681640625,0.28125,0.010009765625,1.2213740458015268,4.305343511450381,-2.5038167938931295,5596,-317,-11,13.8328857421875,-22.24303194139215,-0.014454,False,,False,,,,,32
2219.2400000000002,4.8415775389999,-0.898681640625,0.28125,0.010009765625,1.2213740458015268,4.305343511450381,-2.5038167938931295,5596,-317,-11,13.8328857421875,-22.24303194139215,-0.014454,False,,False,,,,,32
2219.245,4.843583364999631,-0.8974609375,0.3115234375,0.0107421875,1.282442748091603,5.099236641221374,-1.7404580152671756,5520,-340,-8,13.64501953125,-22.935218192705197,-0.010512,False,,False,,,,,32
2219.245,4.8455804509999325,-0.8974609375,0.3115234375,0.0107421875,1.282442748091603,5.099236641221374,-1.7404580152671756,5520,-340,-8,13.64501953125,-22.935218192705197,-0.010512,False,,False,,,,,32
2219.245,4.847584351000023,-0.8974609375,0.3115234375,0.0107421875,1.282442748091603,5.099236641221374,-1.7404580152671756,5520,-340,-8,13.64501953125,-22.935218192705197,-0.010512,False,,False,,,,,32
2219.25,4.849585898999976,-0.874755859375,0.31396484375,0.0009765625,0.0916030534351145,5.190839694656488,-1.4961832061068703,5432,-385,-1,13.427490234375,-23.741084898572264,-0.001314,False,,False,,,,,32
2219.25,4.851585817999876,-0.874755859375,0.31396484375,0.0009765625,0.0916030534351145,5.190839694656488,-1.4961832061068703,5432,-385,-1,13.427490234375,-23.741084898572264,-0.001314,False,,False,,,,,32
2219.255,4.853590015000009,-0.88232421875,0.3193359375,0.00341796875,1.3435114503816794,4.763358778625954,-1.465648854961832,5343,-391,-7,13.207489013671875,-24.682373045717217,-0.009198,False,,False,,,,,32
2219.255,4.855588581999655,-0.88232421875,0.3193359375,0.00341796875,1.3435114503816794,4.763358778625954,-1.465648854961832,5343,-391,-7,13.207489013671875,-24.682373045717217,-0.009198,False,,False,,,,,32
2219.255,4.857588926000062,-0.88232421875,0.3193359375,0.00341796875,1.3435114503816794,4.763358778625954,-1.465648854961832,5343,-391,-7,13.207489013671875,-24.682373045717217,-0.009198,False,,False,,,,,32
2219.26,4.859593585999846,-0.8681640625,0.330322265625,0.00341796875,2.4732824427480917,4.488549618320611,-1.0687022900763359,5248,-414,0,12.97265625,-25.759207438481077,0.0,False,,False,,,,,32
2219.26,4.86159317099964,-0.8681640625,0.330322265625,0.00341796875,2.4732824427480917,4.488549618320611,-1.0687022900763359,5248,-414,0,12.97265625,-25.759207438481077,0.0,False,,False,,,,,32
2219.265,4.863599700999657,-0.85595703125,0.3095703125,0.002685546875,1.618320610687023,4.152671755725191,-1.3129770992366412,5147,-440,-3,12.722991943359375,-26.967938435301384,-0.003942,False,,False,,,,,32
2219.265,4.865596212999662,-0.85595703125,0.3095703125,0.002685546875,1.618320610687023,4.152671755725191,-1.3129770992366412,5147,-440,-3,12.722991943359375,-26.967938435301384,-0.003942,False,,False,,,,,32
2219.265,4.867599445999986,-0.85595703125,0.3095703125,0.002685546875,1.618320610687023,4.152671755725191,-1.3129770992366412,5147,-440,-3,12.722991943359375,-26.967938435301384,-0.003942,False,,False,,,,,32
2219.27,4.869601512999907,-0.8701171875,0.32275390625,0.0166015625,2.259541984732824,4.244274809160305,-0.8549618320610687,5038,-483,5,12.45355224609375,-28.31613340242543,0.0065699999999999995,False,,False,,,,,32
2219.27,4.871664023999983,-0.8701171875,0.32275390625,0.0166015625,2.259541984732824,4.244274809160305,-0.8549618320610687,5038,-483,5,12.45355224609375,-28.31613340242543,0.0065699999999999995,False,,False,,,,,32
2219.275,4.873664904999714,-0.84033203125,0.310546875,0.0068359375,1.3129770992366412,4.244274809160305,-1.2519083969465647,4923,-502,-5,12.169281005859375,-29.811688231991663,-0.0065699999999999995,False,,False,,,,,32
2219.275,4.875666768999963,-0.84033203125,0.310546875,0.0068359375,1.3129770992366412,4.244274809160305,-1.2519083969465647,4923,-502,-5,12.169281005859375,-29.811688231991663,-0.0065699999999999995,False,,False,,,,,32
2219.275,4.877666186999704,-0.84033203125,0.310546875,0.0068359375,1.3129770992366412,4.244274809160305,-1.2519083969465647,4923,-502,-5,12.169281005859375,-29.811688231991663,-0.0065699999999999995,False,,False,,,,,32
2219.28,4.87970508699982,-0.843994140625,0.314697265625,0.013916015625,4.396946564885496,4.091603053435114,-1.7099236641221374,4806,-514,-5,11.88006591796875,-31.44833543305798,-0.0065699999999999995,False,,False,,,,,32
2219.28,4.881671246999758,-0.843994140625,0.314697265625,0.013916015625,4.396946564885496,4.091603053435114,-1.7099236641221374,4806,-514,-5,11.88006591796875,-31.44833543305798,-0.0065699999999999995,False,,False,,,,,32
2219.285,4.88367451799968,-0.843994140625,0.3271484375,0.022705078125,4.9465648854961835,4.213740458015267,-1.618320610687023,4684,-537,-6,11.5784912109375,-33.20625048154129,-0.007884,False,,False,,,,,32
2219.285,4.885675158999675,-0.843994140625,0.3271484375,0.022705078125,4.9465648854961835,4.213740458015267,-1.618320610687023,4684,-537,-6,11.5784912109375,-33.20625048154129,-0.007884,False,,False,,,,,32
2219.285,4.887676967000061,-0.843994140625,0.3271484375,0.022705078125,4.9465648854961835,4.213740458015267,-1.618320610687023,4684,-537,-6,11.5784912109375,-33.20625048154129,-0.007884,False,,False,,,,,32
2219.29,4.889679421999972,-0.837890625,0.321044921875,0.0166015625,4.549618320610687,3.2061068702290076,-0.732824427480916,4555,-569,-6,11.259613037109375,-35.07424189221652,-0.007884,False,,False,,,,,32
2219.29,4.891680155999893,-0.837890625,0.321044921875,0.0166015625,4.549618320610687,3.2061068702290076,-0.732824427480916,4555,-569,-6,11.259613037109375,-35.07424189221652,-0.007884,False,,False,,,,,32
2219.295,4.89368257499973,-0.8310546875,0.29833984375,0.01806640625,4.641221374045801,2.778625954198473,-1.5572519083969465,4422,-579,7,10.93084716796875,-37.04850772952603,0.009198,False,,False,,,,,32
2219.295,4.895681530999809,-0.8310546875,0.29833984375,0.01806640625,4.641221374045801,2.778625954198473,-1.5572519083969465,4422,-579,7,10.93084716796875,-37.04850772952603,0.009198,False,,False,,,,,32
2219.295,4.897685726999953,-0.8310546875,0.29833984375,0.01806640625,4.641221374045801,2.778625954198473,-1.5572519083969465,4422,-579,7,10.93084716796875,-37.04850772952603,0.009198,False,,False,,,,,32
2219.3,4.899687700999948,-0.842041015625,0.306640625,0.01953125,6.900763358778626,2.0763358778625953,-0.4580152671755725,4287,-599,3,10.597137451171875,-39.113582489274556,0.003942,False,,False,,,,,32
2219.3,4.901689730999806,-0.842041015625,0.306640625,0.01953125,6.900763358778626,2.0763358778625953,-0.4580152671755725,4287,-599,3,10.597137451171875,-39.113582489274556,0.003942,False,,False,,,,,32
2219.305,4.903689390999716,-0.82275390625,0.3017578125,0.009033203125,5.129770992366412,0.7938931297709924,-0.5801526717557252,4144,-636,1,10.24365234375,-41.25341270701555,0.001314,False,,False,,,,,32
2219.305,4.905688401999669,-0.82275390625,0.3017578125,0.009033203125,5.129770992366412,0.7938931297709924,-0.5801526717557252,4144,-636,1,10.24365234375,-41.25341270701555,0.001314,False,,False,,,,,32
2219.305,4.907693450999886,-0.82275390625,0.3017578125,0.009033203125,5.129770992366412,0.7938931297709924,-0.5801526717557252,4144,-636,1,10.24365234375,-41.25341270701555,0.001314,False,,False,,,,,32
2219.31,4.909695350999755,-0.848388671875,0.308349609375,0.016357421875,4.0,1.282442748091603,-0.48854961832061067,3994,-654,-2,9.87286376953125,-43.46959029253582,-0.002628,False,,False,,,,,32
2219.31,4.911695622000025,-0.848388671875,0.308349609375,0.016357421875,4.0,1.282442748091603,-0.48854961832061067,3994,-654,-2,9.87286376953125,-43.46959029253582,-0.002628,False,,False,,,,,32
2219.315,4.913698206999925,-0.86181640625,0.32177734375,0.014404296875,5.679389312977099,0.7022900763358778,0.0916030534351145,3842,-673,0,9.49713134765625,-45.76055143588349,0.0,False,,False,,,,,32
2219.315,4.915699458999825,-0.86181640625,0.32177734375,0.014404296875,5.679389312977099,0.7022900763358778,0.0916030534351145,3842,-673,0,9.49713134765625,-45.76055143588349,0.0,False,,False,,,,,32
2219.315,4.917699229999926,-0.86181640625,0.32177734375,0.014404296875,5.679389312977099,0.7022900763358778,0.0916030534351145,3842,-673,0,9.49713134765625,-45.76055143588349,0.0,False,,False,,,,,32
2219.32,4.9197054629999,-0.8544921875,0.3310546875,-0.001220703125,5.2824427480916025,-0.3053435114503817,1.5267175572519083,3685,-698,-4,9.109039306640625,-48.1095795418097,-0.005256,False,,False,,,,,32
2219.32,4.921733603999655,-0.8544921875,0.3310546875,-0.001220703125,5.2824427480916025,-0.3053435114503817,1.5267175572519083,3685,-698,-4,9.109039306640625,-48.1095795418097,-0.005256,False,,False,,,,,32
2219.3250000000003,4.9237460409999585,-0.855712890625,0.321533203125,-0.009033203125,6.106870229007633,-0.8854961832061068,1.5877862595419847,3521,-721,-9,8.703643798828125,-50.50721009584458,-0.011826,False,,False,,,,,32
2219.3250000000003,4.925745459999689,-0.855712890625,0.321533203125,-0.009033203125,6.106870229007633,-0.8854961832061068,1.5877862595419847,3521,-721,-9,8.703643798828125,-50.50721009584458,-0.011826,False,,False,,,,,32
2219.3250000000003,4.927750119999928,-0.855712890625,0.321533203125,-0.009033203125,6.106870229007633,-0.8854961832061068,1.5877862595419847,3521,-721,-9,8.703643798828125,-50.50721009584458,-0.011826,False,,False,,,,,32
2219.33,4.929749445999732,-0.885986328125,0.343017578125,-0.009033203125,6.931297709923664,-1.282442748091603,2.16793893129771,3353,-735,-9,8.288360595703125,-52.95197750647921,-0.011826,False,,False,,,,,32
2219.33,4.931748790999791,-0.885986328125,0.343017578125,-0.009033203125,6.931297709923664,-1.282442748091603,2.16793893129771,3353,-735,-9,8.288360595703125,-52.95197750647921,-0.011826,False,,False,,,,,32
2219.335,4.933751745999871,-0.884765625,0.343994140625,-0.012939453125,6.198473282442748,-1.3129770992366412,2.778625954198473,3182,-753,0,7.86566162109375,-55.433019427830786,0.0,False,,False,,,,,32
2219.335,4.935753294999813,-0.884765625,0.343994140625,-0.012939453125,6.198473282442748,-1.3129770992366412,2.778625954198473,3182,-753,0,7.86566162109375,-55.433019427830786,0.0,False,,False,,,,,32
2219.335,4.93775339900003,-0.884765625,0.343994140625,-0.012939453125,6.198473282442748,-1.3129770992366412,2.778625954198473,3182,-753,0,7.86566162109375,-55.433019427830786,0.0,False,,False,,,,,32
2219.34,4.939756557999772,-0.914306640625,0.357421875,-0.01513671875,6.8396946564885495,-2.564885496183206,4.244274809160305,3005,-773,3,7.428131103515625,-57.937135595948426,0.003942,False,,False,,,,,32
2219.34,4.94175616199982,-0.914306640625,0.357421875,-0.01513671875,6.8396946564885495,-2.564885496183206,4.244274809160305,3005,-773,3,7.428131103515625,-57.937135595948426,0.003942,False,,False,,,,,32
2219.3450000000003,4.943759359000069,-0.92236328125,0.3681640625,-0.026123046875,7.267175572519084,-3.114503816793893,4.854961832061068,2827,-792,9,6.988128662109375,-60.45294072176878,0.011826,False,,False,,,,,32
2219.3450000000003,4.945758943999863,-0.92236328125,0.3681640625,-0.026123046875,7.267175572519084,-3.114503816793893,4.854961832061068,2827,-792,9,6.988128662109375,-60.45294072176878,0.011826,False,,False,,,,,32
2219.3450000000003,4.947759936999773,-0.92236328125,0.3681640625,-0.026123046875,7.267175572519084,-3.114503816793893,4.854961832061068,2827,-792,9,6.988128662109375,-60.45294072176878,0.011826,False,,False,,,,,32
2219.35,4.949763299999631,-0.952880859375,0.378173828125,-0.015380859375,7.541984732824427,-3.7557251908396947,5.49618320610687,2641,-808,8,6.528350830078125,-62.97073391552326,0.010512,False,,False,,,,,32
2219.35,4.951763477999975,-0.952880859375,0.378173828125,-0.015380859375,7.541984732824427,-3.7557251908396947,5.49618320610687,2641,-808,8,6.528350830078125,-62.97073391552326,0.010512,False,,False,,,,,32
2219.355,4.953868044000046,-0.96923828125,0.36181640625,-0.017333984375,8.793893129770993,-4.213740458015267,5.465648854961832,2456,-817,2,6.071044921875,-65.4823649697012,0.002628,False,,False,,,,,32
2219.355,4.955867925999883,-0.96923828125,0.36181640625,-0.017333984375,8.793893129770993,-4.213740458015267,5.465648854961832,2456,-817,2,6.071044921875,-65.4823649697012,0.002628,False,,False,,,,,32
2219.355,4.9578705300000365,-0.96923828125,0.36181640625,-0.017333984375,8.793893129770993,-4.213740458015267,5.465648854961832,2456,-817,2,6.071044921875,-65.4823649697012,0.002628,False,,False,,,,,32
2219.36,4.959873133999736,-1.001220703125,0.365966796875,-0.02099609375,8.061068702290076,-4.091603053435114,6.65648854961832,2266,-842,1,5.60137939453125,-67.9721474284537,0.001314,False,,False,,,,,32
2219.36,4.961871200999667,-1.001220703125,0.365966796875,-0.02099609375,8.061068702290076,-4.091603053435114,6.65648854961832,2266,-842,1,5.60137939453125,-67.9721474284537,0.001314,False,,False,,,,,32
2219.3650000000002,4.963876285999959,-1.0078125,0.3486328125,-0.022705078125,8.458015267175572,-5.862595419847328,5.83206106870229,2075,-839,1,5.129241943359375,-70.42547488922065,0.001314,False,,False,,,,,32
2219.3650000000002,4.965873723999721,-1.0078125,0.3486328125,-0.022705078125,8.458015267175572,-5.862595419847328,5.83206106870229,2075,-839,1,5.129241943359375,-70.42547488922065,0.001314,False,,False,,,,,32
2219.3650000000002,4.96794625199982,-1.0078125,0.3486328125,-0.022705078125,8.458015267175572,-5.862595419847328,5.83206106870229,2075,-839,1,5.129241943359375,-70.42547488922065,0.001314,False,,False,,,,,32
2219.37,4.969946745000016,-1.033935546875,0.37158203125,-0.005615234375,9.526717557251908,-5.709923664122138,6.137404580152672,1880,-864,3,4.647216796875,-72.83243775758615,0.003942,False,,False,,,,,32
2219.37,4.971945848999894,-1.033935546875,0.37158203125,-0.005615234375,9.526717557251908,-5.709923664122138,6.137404580152672,1880,-864,3,4.647216796875,-72.83243775758615,0.003942,False,,False,,,,,32
2219.375,4.973950397999943,-1.02587890625,0.359375,-0.001953125,8.6412213740458,-6.106870229007633,6.473282442748092,1681,-876,1,4.155303955078125,-75.18899258241656,0.001314,False,,False,,,,,32
2219.375,4.975952538999991,-1.02587890625,0.359375,-0.001953125,8.6412213740458,-6.106870229007633,6.473282442748092,1681,-876,1,4.155303955078125,-75.18899258241656,0.001314,False,,False,,,,,32
2219.375,4.977954271999806,-1.02587890625,0.359375,-0.001953125,8.6412213740458,-6.106870229007633,6.473282442748092,1681,-876,1,4.155303955078125,-75.18899258241656,0.001314,False,,False,,,,,32
2219.38,4.979955357999643,-1.03857421875,0.345703125,-0.002197265625,8.305343511450381,-7.511450381679389,6.137404580152672,1481,-883,2,3.660919189453125,-77.49248450806945,0.002628,False,,False,,,,,32
2219.38,4.981953313999838,-1.03857421875,0.345703125,-0.002197265625,8.305343511450381,-7.511450381679389,6.137404580152672,1481,-883,2,3.660919189453125,-77.49248450806945,0.002628,False,,False,,,,,32
2219.385,4.983957972999633,-1.0439453125,0.329833984375,-0.000244140625,7.908396946564885,-8.366412213740457,5.49618320610687,1275,-901,6,3.151702880859375,-79.73966914163167,0.007884,False,,False,,,,,32
2219.385,4.985956170000009,-1.0439453125,0.329833984375,-0.000244140625,7.908396946564885,-8.366412213740457,5.49618320610687,1275,-901,6,3.151702880859375,-79.73966914163167,0.007884,False,,False,,,,,32
2219.385,4.987962125999729,-1.0439453125,0.329833984375,-0.000244140625,7.908396946564885,-8.366412213740457,5.49618320610687,1275,-901,6,3.151702880859375,-79.73966914163167,0.007884,False,,False,,,,,32
2219.39,4.989962210999693,-1.0625,0.32373046875,0.00927734375,9.954198473282442,-9.282442748091603,5.007633587786259,1069,-911,0,2.642486572265625,-81.93043654943472,0.0,False,,False,,,,,32
2219.39,4.99196048199974,-1.0625,0.32373046875,0.00927734375,9.954198473282442,-9.282442748091603,5.007633587786259,1069,-911,0,2.642486572265625,-81.93043654943472,0.0,False,,False,,,,,32
2219.395,4.993965511999704,-1.0439453125,0.30908203125,-0.006103515625,8.763358778625953,-8.549618320610687,5.374045801526718,862,-917,-5,2.13079833984375,-84.05476897292179,-0.0065699999999999995,False,,False,,,,,32
2219.395,4.995964392999667,-1.0439453125,0.30908203125,-0.006103515625,8.763358778625953,-8.549618320610687,5.374045801526718,862,-917,-5,2.13079833984375,-84.05476897292179,-0.0065699999999999995,False,,False,,,,,32
2219.395,4.998004144999868,-1.0439453125,0.30908203125,-0.006103515625,8.763358778625953,-8.549618320610687,5.374045801526718,862,-917,-5,2.13079833984375,-84.05476897292179,-0.0065699999999999995,False,,False,,,,,32
2219.4,5.000004970999726,-1.076171875,0.3271484375,-0.00390625,8.6412213740458,-8.702290076335878,5.007633587786259,653,-920,-9,1.614166259765625,-86.09987064129322,-0.011826,False,,False,,,,,32
2219.4,5.002036555999894,-1.076171875,0.3271484375,-0.00390625,8.6412213740458,-8.702290076335878,5.007633587786259,653,-920,-9,1.614166259765625,-86.09987064129322,-0.011826,False,,False,,,,,32
2219.405,5.004180954999811,-1.0615234375,0.29931640625,-0.01513671875,7.603053435114504,-9.374045801526718,4.580152671755725,443,-930,2,1.095062255859375,-88.05975797260047,0.002628,False,,False,,,,,32
2219.405,5.006179965999763,-1.0615234375,0.29931640625,-0.01513671875,7.603053435114504,-9.374045801526718,4.580152671755725,443,-930,2,1.095062255859375,-88.05975797260047,0.002628,False,,False,,,,,32
2219.405,5.008178774000044,-1.0615234375,0.29931640625,-0.01513671875,7.603053435114504,-9.374045801526718,4.580152671755725,443,-930,2,1.095062255859375,-88.05975797260047,0.002628,False,,False,,,,,32
2219.41,5.01018387799968,-1.08056640625,0.2939453125,-0.009033203125,7.877862595419847,-9.129770992366412,4.244274809160305,232,-925,-3,0.573486328125,-89.9288655944859,-0.003942,False,,False,,,,,32
2219.41,5.012181925999812,-1.08056640625,0.2939453125,-0.009033203125,7.877862595419847,-9.129770992366412,4.244274809160305,232,-925,-3,0.573486328125,-89.9288655944859,-0.003942,False,,False,,,,,32
2219.415,5.0141864009997335,-1.084228515625,0.301513671875,-0.01318359375,7.816793893129771,-8.030534351145038,5.221374045801526,20,-927,-11,0.0494384765625,-91.70205887594459,-0.014454,False,,False,,,,,32
2219.415,5.01618652299976,-1.084228515625,0.301513671875,-0.01318359375,7.816793893129771,-8.030534351145038,5.221374045801526,20,-927,-11,0.0494384765625,-91.70205887594459,-0.014454,False,,False,,,,,32
2219.415,5.01818947899983,-1.084228515625,0.301513671875,-0.01318359375,7.816793893129771,-8.030534351145038,5.221374045801526,20,-927,-11,0.0494384765625,-91.70205887594459,-0.014454,False,,False,,,,,32
2219.42,5.020188120000057,-1.087890625,0.26904296875,-0.035888671875,8.213740458015266,-8.122137404580153,5.099236641221374,-190,-922,-1,-0.46966552734375,-93.37105717031878,-0.001314,False,,False,,,,,32
2219.42,5.022190427999703,-1.087890625,0.26904296875,-0.035888671875,8.213740458015266,-8.122137404580153,5.099236641221374,-190,-922,-1,-0.46966552734375,-93.37105717031878,-0.001314,False,,False,,,,,32
2219.425,5.02419175399973,-1.07666015625,0.276123046875,-0.04150390625,8.396946564885496,-6.5038167938931295,6.534351145038167,-396,-914,2,-0.9788818359375,-94.91611348306566,0.002628,False,,False,,,,,32
2219.425,5.026192191000064,-1.07666015625,0.276123046875,-0.04150390625,8.396946564885496,-6.5038167938931295,6.534351145038167,-396,-914,2,-0.9788818359375,-94.91611348306566,0.002628,False,,False,,,,,32
2219.425,5.028193016999921,-1.07666015625,0.276123046875,-0.04150390625,8.396946564885496,-6.5038167938931295,6.534351145038167,-396,-914,2,-0.9788818359375,-94.91611348306566,0.002628,False,,False,,,,,32
2219.43,5.030196140000044,-1.066162109375,0.244873046875,-0.055908203125,7.572519083969465,-6.381679389312977,6.534351145038167,-598,-881,-1,-1.47821044921875,-96.30995797712069,-0.001314,False,,False,,,,,32
2219.43,5.032195428999785,-1.066162109375,0.244873046875,-0.055908203125,7.572519083969465,-6.381679389312977,6.534351145038167,-598,-881,-1,-1.47821044921875,-96.30995797712069,-0.001314,False,,False,,,,,32
2219.435,5.034255531999861,-1.084228515625,0.244873046875,-0.048095703125,7.786259541984733,-5.007633587786259,7.694656488549618,-795,-863,-8,-1.965179443359375,-97.52657989695449,-0.010512,False,,False,,,,,32
2219.435,5.036260691999814,-1.084228515625,0.244873046875,-0.048095703125,7.786259541984733,-5.007633587786259,7.694656488549618,-795,-863,-8,-1.965179443359375,-97.52657989695449,-0.010512,False,,False,,,,,32
2219.435,5.038258591999693,-1.084228515625,0.244873046875,-0.048095703125,7.786259541984733,-5.007633587786259,7.694656488549618,-795,-863,-8,-1.965179443359375,-97.52657989695449,-0.010512,False,,False,,,,,32
2219.44,5.040260343999762,-1.059326171875,0.20947265625,-0.057861328125,7.0534351145038165,-2.4427480916030535,8.51908396946565,-987,-840,-4,-2.439788818359375,-98.54318988178727,-0.005256,False,,False,,,,,32
2219.44,5.0422613369996725,-1.059326171875,0.20947265625,-0.057861328125,7.0534351145038165,-2.4427480916030535,8.51908396946565,-987,-840,-4,-2.439788818359375,-98.54318988178727,-0.005256,False,,False,,,,,32
2219.445,5.044263385999784,-1.073974609375,0.21240234375,-0.043701171875,8.458015267175572,-0.8244274809160305,9.251908396946565,-1168,-793,-7,-2.88720703125,-99.33107308587319,-0.009198,False,,False,,,,,32
2219.445,5.04626280399998,-1.073974609375,0.21240234375,-0.043701171875,8.458015267175572,-0.8244274809160305,9.251908396946565,-1168,-793,-7,-2.88720703125,-99.33107308587319,-0.009198,False,,False,,,,,32
2219.445,5.048264074999679,-1.073974609375,0.21240234375,-0.043701171875,8.458015267175572,-0.8244274809160305,9.251908396946565,-1168,-793,-7,-2.88720703125,-99.33107308587319,-0.009198,False,,False,,,,,32
2219.4500000000003,5.050265011999727,-1.042236328125,0.201904296875,-0.05029296875,7.786259541984733,0.7938931297709924,10.229007633587786,-1344,-766,-7,-3.322265625,-99.8587604444819,-0.009198,False,,False,,,,,32
2219.4500000000003,5.052265986999828,-1.042236328125,0.201904296875,-0.05029296875,7.786259541984733,0.7938931297709924,10.229007633587786,-1344,-766,-7,-3.322265625,-99.8587604444819,-0.009198,False,,False,,,,,32
2219.455,5.054269756999929,-1.06298828125,0.19287109375,-0.043701171875,8.274809160305344,1.465648854961832,9.709923664122137,-1508,-706,-8,-3.7276611328125,-100.10188551583416,-0.010512,False,,False,,,,,32
2219.455,5.056269953999617,-1.06298828125,0.19287109375,-0.043701171875,8.274809160305344,1.465648854961832,9.709923664122137,-1508,-706,-8,-3.7276611328125,-100.10188551583416,-0.010512,False,,False,,,,,32
2219.455,5.058271502000025,-1.06298828125,0.19287109375,-0.043701171875,8.274809160305344,1.465648854961832,9.709923664122137,-1508,-706,-8,-3.7276611328125,-100.10188551583416,-0.010512,False,,False,,,,,32
2219.46,5.060273624999809,-1.05322265625,0.18994140625,-0.033935546875,10.198473282442748,3.2061068702290076,10.015267175572518,-1661,-671,-2,-4.105865478515625,-100.03163800870014,-0.002628,False,,False,,,,,32
2219.46,5.06227326599992,-1.05322265625,0.18994140625,-0.033935546875,10.198473282442748,3.2061068702290076,10.015267175572518,-1661,-671,-2,-4.105865478515625,-100.03163800870014,-0.002628,False,,False,,,,,32
2219.465,5.0642821849996835,-1.07275390625,0.195556640625,-0.022216796875,8.916030534351144,4.061068702290076,10.320610687022901,-1806,-633,-6,-4.46429443359375,-99.6248572102069,-0.007884,False,,False,,,,,32
2219.465,5.066278065999995,-1.07275390625,0.195556640625,-0.022216796875,8.916030534351144,4.061068702290076,10.320610687022901,-1806,-633,-6,-4.46429443359375,-99.6248572102069,-0.007884,False,,False,,,,,32
2219.465,5.068300280999665,-1.07275390625,0.195556640625,-0.022216796875,8.916030534351144,4.061068702290076,10.320610687022901,-1806,-633,-6,-4.46429443359375,-99.6248572102069,-0.007884,False,,False,,,,,32
2219.4700000000003,5.070299995999903,-1.06982421875,0.18115234375,-0.020751953125,9.618320610687023,3.9083969465648853,9.31297709923664,-1934,-565,-7,-4.78070068359375,-98.86344765377527,-0.009198,False,,False,,,,,32
2219.4700000000003,5.072299136999845,-1.06982421875,0.18115234375,-0.020751953125,9.618320610687023,3.9083969465648853,9.31297709923664,-1934,-565,-7,-4.78070068359375,-98.86344765377527,-0.009198,False,,False,,,,,32
2219.475,5.074303074999989,-1.069091796875,0.20458984375,-0.006591796875,10.50381679389313,4.580152671755725,9.404580152671755,-2051,-507,-6,-5.069915771484375,-97.72128301902723,-0.007884,False,,False,,,,,32
2219.475,5.076303566999741,-1.069091796875,0.20458984375,-0.006591796875,10.50381679389313,4.580152671755725,9.404580152671755,-2051,-507,-6,-5.069915771484375,-97.72128301902723,-0.007884,False,,False,,,,,32
2219.475,5.078311652999673,-1.069091796875,0.20458984375,-0.006591796875,10.50381679389313,4.580152671755725,9.404580152671755,-2051,-507,-6,-5.069915771484375,-97.72128301902723,-0.007884,False,,False,,,,,32
2219.48,5.08033308999984,-1.052001953125,0.200439453125,0.002197265625,9.618320610687023,2.8702290076335877,8.763358778625953,-2161,-467,-9,-5.341827392578125,-96.19454025361107,-0.011826,False,,False,,,,,32
2219.48,5.082313656999759,-1.052001953125,0.200439453125,0.002197265625,9.618320610687023,2.8702290076335877,8.763358778625953,-2161,-467,-9,-5.341827392578125,-96.19454025361107,-0.011826,False,,False,,,,,32
2219.485,5.084314575999997,-1.056884765625,0.20849609375,0.012451171875,9.404580152671755,3.0229007633587783,8.610687022900763,-2260,-434,-4,-5.5865478515625,-94.30349508790447,-0.005256,False,,False,,,,,32
2219.485,5.0863182169996435,-1.056884765625,0.20849609375,0.012451171875,9.404580152671755,3.0229007633587783,8.610687022900763,-2260,-434,-4,-5.5865478515625,-94.30349508790447,-0.005256,False,,False,,,,,32
2219.485,5.088368930999877,-1.056884765625,0.20849609375,0.012451171875,9.404580152671755,3.0229007633587783,8.610687022900763,-2260,-434,-4,-5.5865478515625,-94.30349508790447,-0.005256,False,,False,,,,,32
2219.4900000000002,5.09031823999976,-1.043212890625,0.19189453125,0.011962890625,9.740458015267174,1.5572519083969465,7.3893129770992365,-2347,-379,0,-5.801605224609375,-92.0614470195869,0.0,False,,False,,,,,32
2219.4900000000002,5.092319880999639,-1.043212890625,0.19189453125,0.011962890625,9.740458015267174,1.5572519083969465,7.3893129770992365,-2347,-379,0,-5.801605224609375,-92.0614470195869,0.0,False,,False,,,,,32
2219.495,5.094322873999772,-1.0322265625,0.20166015625,0.0166015625,9.801526717557252,1.3435114503816794,6.961832061068702,-2422,-332,1,-5.98699951171875,-89.47387200201274,0.001314,False,,False,,,,,32
2219.495,5.096325126000011,-1.0322265625,0.20166015625,0.0166015625,9.801526717557252,1.3435114503816794,6.961832061068702,-2422,-332,1,-5.98699951171875,-89.47387200201274,0.001314,False,,False,,,,,32
2219.495,5.0983266369999,-1.0322265625,0.20166015625,0.0166015625,9.801526717557252,1.3435114503816794,6.961832061068702,-2422,-332,1,-5.98699951171875,-89.47387200201274,0.001314,False,,False,,,,,32
2219.5,5.100324110999736,-1.011962890625,0.20947265625,0.0185546875,8.030534351145038,0.42748091603053434,6.1679389312977095,-2491,-303,3,-6.157562255859375,-86.55931247794803,0.003942,False,,False,,,,,32
2219.5,5.1023287339999115,-1.011962890625,0.20947265625,0.0185546875,8.030534351145038,0.42748091603053434,6.1679389312977095,-2491,-303,3,-6.157562255859375,-86.55931247794803,0.003942,False,,False,,,,,32
2219.505,5.104330948999632,-0.9892578125,0.2099609375,0.014404296875,6.473282442748092,0.42748091603053434,5.587786259541985,-2553,-282,7,-6.310821533203125,-83.35772432102854,0.009198,False,,False,,,,,32
2219.505,5.106330459999754,-0.9892578125,0.2099609375,0.014404296875,6.473282442748092,0.42748091603053434,5.587786259541985,-2553,-282,7,-6.310821533203125,-83.35772432102854,0.009198,False,,False,,,,,32
2219.505,5.108332267999685,-0.9892578125,0.2099609375,0.014404296875,6.473282442748092,0.42748091603053434,5.587786259541985,-2553,-282,7,-6.310821533203125,-83.35772432102854,0.009198,False,,False,,,,,32
2219.51,5.110333909000019,-0.967041015625,0.20703125,0.00927734375,6.534351145038167,-0.33587786259541985,4.916030534351145,-2609,-243,-2,-6.449249267578125,-79.91566848153197,-0.002628,False,,False,,,,,32
2219.51,5.112334012999781,-0.967041015625,0.20703125,0.00927734375,6.534351145038167,-0.33587786259541985,4.916030534351145,-2609,-243,-2,-6.449249267578125,-79.91566848153197,-0.002628,False,,False,,,,,32
2219.515,5.114337579999756,-0.94384765625,0.20068359375,0.001708984375,6.3206106870229,0.2748091603053435,3.9389312977099236,-2662,-228,5,-6.58026123046875,-76.28277053882792,0.0065699999999999995,False,,False,,,,,32
2219.515,5.116338090999761,-0.94384765625,0.20068359375,0.001708984375,6.3206106870229,0.2748091603053435,3.9389312977099236,-2662,-228,5,-6.58026123046875,-76.28277053882792,0.0065699999999999995,False,,False,,,,,32
2219.515,5.1183412880000105,-0.94384765625,0.20068359375,0.001708984375,6.3206106870229,0.2748091603053435,3.9389312977099236,-2662,-228,5,-6.58026123046875,-76.28277053882792,0.0065699999999999995,False,,False,,,,,32
2219.52,5.120339928999783,-0.9189453125,0.221923828125,-0.008544921875,4.549618320610687,0.12213740458015267,4.488549618320611,-2712,-212,1,-6.703857421875,-72.51587432383563,0.001314,False,,False,,,,,32
2219.52,5.122342236999884,-0.9189453125,0.221923828125,-0.008544921875,4.549618320610687,0.12213740458015267,4.488549618320611,-2712,-212,1,-6.703857421875,-72.51587432383563,0.001314,False,,False,,,,,32
2219.525,5.124370636999629,-0.9013671875,0.208984375,-0.024658203125,5.2824427480916025,0.5190839694656488,2.9923664122137406,-2756,-191,-7,-6.8126220703125,-68.66450964503366,-0.009198,False,,False,,,,,32
2219.525,5.126356499999929,-0.9013671875,0.208984375,-0.024658203125,5.2824427480916025,0.5190839694656488,2.9923664122137406,-2756,-191,-7,-6.8126220703125,-68.66450964503366,-0.009198,False,,False,,,,,32
2219.525,5.128355992999786,-0.9013671875,0.208984375,-0.024658203125,5.2824427480916025,0.5190839694656488,2.9923664122137406,-2756,-191,-7,-6.8126220703125,-68.66450964503366,-0.009198,False,,False,,,,,32
2219.53,5.1303579860000355,-0.9267578125,0.24951171875,-0.0068359375,5.984732824427481,1.4351145038167938,3.9389312977099236,-2796,-172,-2,-6.9114990234375,-64.76420360409882,-0.002628,False,,False,,,,,32
2219.53,5.132358163999925,-0.9267578125,0.24951171875,-0.0068359375,5.984732824427481,1.4351145038167938,3.9389312977099236,-2796,-172,-2,-6.9114990234375,-64.76420360409882,-0.002628,False,,False,,,,,32
2219.535,5.134363063999899,-0.8720703125,0.193359375,-0.03564453125,4.580152671755725,0.7022900763358778,2.4122137404580153,-2830,-144,0,-6.99554443359375,-60.843617334630736,0.0,False,,False,,,,,32
2219.535,5.136360556999989,-0.8720703125,0.193359375,-0.03564453125,4.580152671755725,0.7022900763358778,2.4122137404580153,-2830,-144,0,-6.99554443359375,-60.843617334630736,0.0,False,,False,,,,,32
2219.535,5.138364364999688,-0.8720703125,0.193359375,-0.03564453125,4.580152671755725,0.7022900763358778,2.4122137404580153,-2830,-144,0,-6.99554443359375,-60.843617334630736,0.0,False,,False,,,,,32
2219.54,5.1403628949997255,-0.863037109375,0.215576171875,-0.036376953125,3.6946564885496183,2.198473282442748,2.687022900763359,-2863,-149,0,-7.077117919921875,-56.932410718399034,0.0,False,,False,,,,,32
2219.54,5.1423697759996685,-0.863037109375,0.215576171875,-0.036376953125,3.6946564885496183,2.198473282442748,2.687022900763359,-2863,-149,0,-7.077117919921875,-56.932410718399034,0.0,False,,False,,,,,32
2219.545,5.144370121000065,-0.88916015625,0.228759765625,-0.02587890625,5.2824427480916025,1.9541984732824427,2.198473282442748,-2892,-117,-2,-7.1488037109375,-53.06423110455609,-0.002628,False,,False,,,,,32
2219.545,5.146369613999923,-0.88916015625,0.228759765625,-0.02587890625,5.2824427480916025,1.9541984732824427,2.198473282442748,-2892,-117,-2,-7.1488037109375,-53.06423110455609,-0.002628,False,,False,,,,,32
2219.545,5.148371513999791,-0.88916015625,0.228759765625,-0.02587890625,5.2824427480916025,1.9541984732824427,2.198473282442748,-2892,-117,-2,-7.1488037109375,-53.06423110455609,-0.002628,False,,False,,,,,32
2219.55,5.150371339999765,-0.85986328125,0.243408203125,-0.035888671875,4.030534351145038,3.297709923664122,4.152671755725191,-2920,-130,-6,-7.218017578125,-49.27020512436268,-0.007884,False,,False,,,,,32
2219.55,5.152372259000003,-0.85986328125,0.243408203125,-0.035888671875,4.030534351145038,3.297709923664122,4.152671755725191,-2920,-130,-6,-7.218017578125,-49.27020512436268,-0.007884,False,,False,,,,,32
2219.555,5.154376103999766,-0.847900390625,0.222900390625,-0.044921875,2.1374045801526718,3.541984732824427,3.6030534351145036,-2951,-129,-1,-7.294647216796875,-45.5878507081775,-0.001314,False,,False,,,,,32
2219.555,5.156377003999751,-0.847900390625,0.222900390625,-0.044921875,2.1374045801526718,3.541984732824427,3.6030534351145036,-2951,-129,-1,-7.294647216796875,-45.5878507081775,-0.001314,False,,False,,,,,32
2219.555,5.15837995999982,-0.847900390625,0.222900390625,-0.044921875,2.1374045801526718,3.541984732824427,3.6030534351145036,-2951,-129,-1,-7.294647216796875,-45.5878507081775,-0.001314,False,,False,,,,,32
2219.56,5.160384396999689,-0.837646484375,0.244873046875,-0.052978515625,1.3129770992366412,4.9465648854961835,5.893129770992366,-2984,-152,-9,-7.376220703125,-42.06486446520238,-0.011826,False,,False,,,,,32
2219.56,5.162380667999969,-0.837646484375,0.244873046875,-0.052978515625,1.3129770992366412,4.9465648854961835,5.893129770992366,-2984,-152,-9,-7.376220703125,-42.06486446520238,-0.011826,False,,False,,,,,32
2219.565,5.164400808999744,-0.847900390625,0.2216796875,-0.05419921875,2.259541984732824,3.7251908396946565,4.7328244274809155,-3014,-135,-5,-7.45037841796875,-38.733496885909545,-0.0065699999999999995,False,,False,,,,,32
2219.565,5.166399375999845,-0.847900390625,0.2216796875,-0.05419921875,2.259541984732824,3.7251908396946565,4.7328244274809155,-3014,-135,-5,-7.45037841796875,-38.733496885909545,-0.0065699999999999995,False,,False,,,,,32
2219.565,5.16841177599963,-0.847900390625,0.2216796875,-0.05419921875,2.259541984732824,3.7251908396946565,4.7328244274809155,-3014,-135,-5,-7.45037841796875,-38.733496885909545,-0.0065699999999999995,False,,False,,,,,32
2219.57,5.170400453999719,-0.8603515625,0.254638671875,-0.04248046875,3.847328244274809,4.641221374045801,6.229007633587786,-3044,-126,3,-7.5245361328125,-35.60364752874254,0.003942,False,,False,,,,,32
2219.57,5.172404298999936,-0.8603515625,0.254638671875,-0.04248046875,3.847328244274809,4.641221374045801,6.229007633587786,-3044,-126,3,-7.5245361328125,-35.60364752874254,0.003942,False,,False,,,,,32
2219.5750000000003,5.174406328999794,-0.827880859375,0.225341796875,-0.048095703125,1.9541984732824427,5.251908396946565,6.351145038167939,-3073,-137,10,-7.596221923828125,-32.68068478311093,0.013139999999999999,False,,False,,,,,32
2219.5750000000003,5.1764068399998,-0.827880859375,0.225341796875,-0.048095703125,1.9541984732824427,5.251908396946565,6.351145038167939,-3073,-137,10,-7.596221923828125,-32.68068478311093,0.013139999999999999,False,,False,,,,,32
2219.5750000000003,5.178408128999763,-0.827880859375,0.225341796875,-0.048095703125,1.9541984732824427,5.251908396946565,6.351145038167939,-3073,-137,10,-7.596221923828125,-32.68068478311093,0.013139999999999999,False,,False,,,,,32
2219.58,5.1804111039996315,-0.83740234375,0.24462890625,-0.037109375,0.8549618320610687,6.65648854961832,8.549618320610687,-3104,-140,5,-7.6728515625,-29.973267873131036,0.0065699999999999995,False,,False,,,,,32
2219.58,5.182410336999965,-0.83740234375,0.24462890625,-0.037109375,0.8549618320610687,6.65648854961832,8.549618320610687,-3104,-140,5,-7.6728515625,-29.973267873131036,0.0065699999999999995,False,,False,,,,,32
2219.585,5.184501699000066,-0.824462890625,0.20849609375,-0.042724609375,-0.5801526717557252,6.290076335877862,7.969465648854961,-3138,-148,-4,-7.75689697265625,-27.49626661387411,-0.005256,False,,False,,,,,32
2219.585,5.18650139600004,-0.824462890625,0.20849609375,-0.042724609375,-0.5801526717557252,6.290076335877862,7.969465648854961,-3138,-148,-4,-7.75689697265625,-27.49626661387411,-0.005256,False,,False,,,,,32
2219.59,5.188540092000039,-0.85791015625,0.23486328125,-0.023681640625,2.1374045801526718,5.740458015267175,8.091603053435113,-3164,-113,0,-7.8211669921875,-25.24804874825204,0.0,False,,False,,,,,32
2219.59,5.190504251999755,-0.85791015625,0.23486328125,-0.023681640625,2.1374045801526718,5.740458015267175,8.091603053435113,-3164,-113,0,-7.8211669921875,-25.24804874825204,0.0,False,,False,,,,,32
2219.59,5.1925073559996235,-0.85791015625,0.23486328125,-0.023681640625,2.1374045801526718,5.740458015267175,8.091603053435113,-3164,-113,0,-7.8211669921875,-25.24804874825204,0.0,False,,False,,,,,32
2219.5950000000003,5.1945080709997455,-0.83642578125,0.2197265625,-0.03125,3.0534351145038165,5.740458015267175,8.335877862595419,-3188,-100,-1,-7.8804931640625,-23.19707589572662,-0.001314,False,,False,,,,,32
2219.5950000000003,5.1965103600000475,-0.83642578125,0.2197265625,-0.03125,3.0534351145038165,5.740458015267175,8.335877862595419,-3188,-100,-1,-7.8804931640625,-23.19707589572662,-0.001314,False,,False,,,,,32
2219.6,5.198546241999793,-0.884521484375,0.178466796875,-0.009521484375,7.297709923664121,2.6564885496183206,5.038167938931298,-3196,-25,-5,-7.9002685546875,-21.290810714166376,-0.0065699999999999995,False,,False,,,,,32
2219.6,5.200546030999703,-0.884521484375,0.178466796875,-0.009521484375,7.297709923664121,2.6564885496183206,5.038167938931298,-3196,-25,-5,-7.9002685546875,-21.290810714166376,-0.0065699999999999995,False,,False,,,,,32
2219.6,5.202545967999868,-0.884521484375,0.178466796875,-0.009521484375,7.297709923664121,2.6564885496183206,5.038167938931298,-3196,-25,-5,-7.9002685546875,-21.290810714166376,-0.0065699999999999995,False,,False,,,,,32
2219.605,5.204551034999895,-0.88427734375,0.17626953125,-0.000244140625,7.114503816793893,1.8931297709923662,4.9465648854961835,-3191,14,2,-7.887908935546875,-19.449153985174206,0.002628,False,,False,,,,,32
2219.605,5.206550157000038,-0.88427734375,0.17626953125,-0.000244140625,7.114503816793893,1.8931297709923662,4.9465648854961835,-3191,14,2,-7.887908935546875,-19.449153985174206,0.002628,False,,False,,,,,32
2219.605,5.208555149999938,-0.88427734375,0.17626953125,-0.000244140625,7.114503816793893,1.8931297709923662,4.9465648854961835,-3191,14,2,-7.887908935546875,-19.449153985174206,0.002628,False,,False,,,,,32
2219.61,5.210553272999732,-0.875732421875,0.162841796875,0.003173828125,4.030534351145038,2.045801526717557,5.435114503816794,-3187,12,-3,-7.878021240234375,-17.61485517287333,-0.003942,False,,False,,,,,32
2219.61,5.212556691999907,-0.875732421875,0.162841796875,0.003173828125,4.030534351145038,2.045801526717557,5.435114503816794,-3187,12,-3,-7.878021240234375,-17.61485517287333,-0.003942,False,,False,,,,,32
2219.6150000000002,5.214558183999998,-0.873291015625,0.17333984375,0.006103515625,0.3969465648854962,2.8091603053435112,6.381679389312977,-3186,2,0,-7.87554931640625,-15.798965224486931,0.0,False,,False,,,,,32
2219.6150000000002,5.2165602139998555,-0.873291015625,0.17333984375,0.006103515625,0.3969465648854962,2.8091603053435112,6.381679389312977,-3186,2,0,-7.87554931640625,-15.798965224486931,0.0,False,,False,,,,,32
2219.62,5.218562577999819,-0.860595703125,0.218505859375,-0.009765625,-0.2748091603053435,3.633587786259542,7.816793893129771,-3186,5,1,-7.87554931640625,-14.039117172762168,0.001314,False,,False,,,,,32
2219.62,5.22056077399975,-0.860595703125,0.218505859375,-0.009765625,-0.2748091603053435,3.633587786259542,7.816793893129771,-3186,5,1,-7.87554931640625,-14.039117172762168,0.001314,False,,False,,,,,32
2219.62,5.222561488999872,-0.860595703125,0.218505859375,-0.009765625,-0.2748091603053435,3.633587786259542,7.816793893129771,-3186,5,1,-7.87554931640625,-14.039117172762168,0.001314,False,,False,,,,,32
2219.625,5.2245690009999635,-0.853271484375,0.22216796875,-0.0166015625,0.8854961832061068,3.0839694656488548,8.702290076335878,-3187,0,-2,-7.878021240234375,-12.362423830257494,-0.002628,False,,False,,,,,32
2219.625,5.226564233999852,-0.853271484375,0.22216796875,-0.0166015625,0.8854961832061068,3.0839694656488548,8.702290076335878,-3187,0,-2,-7.878021240234375,-12.362423830257494,-0.002628,False,,False,,,,,32
2219.63,5.228569356999742,-0.851318359375,0.21533203125,-0.02685546875,1.5267175572519083,2.564885496183206,9.49618320610687,-3185,11,2,-7.873077392578125,-10.779635881666426,0.002628,False,,False,,,,,32
2219.63,5.230569256999843,-0.851318359375,0.21533203125,-0.02685546875,1.5267175572519083,2.564885496183206,9.49618320610687,-3185,11,2,-7.873077392578125,-10.779635881666426,0.002628,False,,False,,,,,32
2219.63,5.232572471999902,-0.851318359375,0.21533203125,-0.02685546875,1.5267175572519083,2.564885496183206,9.49618320610687,-3185,11,2,-7.873077392578125,-10.779635881666426,0.002628,False,,False,,,,,32
2219.635,5.234576501999982,-0.860107421875,0.213623046875,-0.029296875,1.5267175572519083,2.564885496183206,10.473282442748092,-3182,13,0,-7.86566162109375,-9.287650196234326,0.0,False,,False,,,,,32
2219.635,5.2365749209998285,-0.860107421875,0.213623046875,-0.029296875,1.5267175572519083,2.564885496183206,10.473282442748092,-3182,13,0,-7.86566162109375,-9.287650196234326,0.0,False,,False,,,,,32
2219.64,5.238581413999782,-0.872802734375,0.1953125,-0.03955078125,1.9541984732824427,1.8015267175572518,11.32824427480916,-3180,18,0,-7.8607177734375,-7.886134470653431,0.0,False,,False,,,,,32
2219.64,5.240579461999914,-0.872802734375,0.1953125,-0.03955078125,1.9541984732824427,1.8015267175572518,11.32824427480916,-3180,18,0,-7.8607177734375,-7.886134470653431,0.0,False,,False,,,,,32
2219.64,5.242582435999793,-0.872802734375,0.1953125,-0.03955078125,1.9541984732824427,1.8015267175572518,11.32824427480916,-3180,18,0,-7.8607177734375,-7.886134470653431,0.0,False,,False,,,,,32
2219.645,5.244584928999757,-0.886474609375,0.19580078125,-0.042724609375,2.900763358778626,1.0687022900763359,11.206106870229007,-3179,3,1,-7.858245849609375,-6.584242918168157,0.001314,False,,False,,,,,32
2219.645,5.246582404000037,-0.886474609375,0.19580078125,-0.042724609375,2.900763358778626,1.0687022900763359,11.206106870229007,-3179,3,1,-7.858245849609375,-6.584242918168157,0.001314,False,,False,,,,,32
2219.65,5.248586340999736,-0.900146484375,0.19482421875,-0.034912109375,3.480916030534351,0.7022900763358778,11.755725190839694,-3178,1,-6,-7.85577392578125,-5.389986554201388,-0.007884,False,,False,,,,,32
2219.65,5.250586277999901,-0.900146484375,0.19482421875,-0.034912109375,3.480916030534351,0.7022900763358778,11.755725190839694,-3178,1,-6,-7.85577392578125,-5.389986554201388,-0.007884,False,,False,,,,,32
2219.65,5.2525893639999595,-0.900146484375,0.19482421875,-0.034912109375,3.480916030534351,0.7022900763358778,11.755725190839694,-3178,1,-6,-7.85577392578125,-5.389986554201388,-0.007884,False,,False,,,,,32
2219.655,5.254591375000018,-0.892822265625,0.168701171875,-0.03759765625,2.045801526717557,0.366412213740458,11.66412213740458,-3179,1,0,-7.858245849609375,-4.308512772382639,0.0,False,,False,,,,,32
2219.655,5.25659077499995,-0.892822265625,0.168701171875,-0.03759765625,2.045801526717557,0.366412213740458,11.66412213740458,-3179,1,0,-7.858245849609375,-4.308512772382639,0.0,False,,False,,,,,32
2219.66,5.2585956759999135,-0.9248046875,0.158935546875,-0.05078125,4.244274809160305,-1.648854961832061,9.251908396946565,-3178,7,1,-7.85577392578125,-3.3407065216710725,0.001314,False,,False,,,,,32
2219.66,5.260591982999813,-0.9248046875,0.158935546875,-0.05078125,4.244274809160305,-1.648854961832061,9.251908396946565,-3178,7,1,-7.85577392578125,-3.3407065216710725,0.001314,False,,False,,,,,32
2219.66,5.262593901999935,-0.9248046875,0.158935546875,-0.05078125,4.244274809160305,-1.648854961832061,9.251908396946565,-3178,7,1,-7.85577392578125,-3.3407065216710725,0.001314,False,,False,,,,,32
2219.665,5.264597414000036,-0.893310546875,0.318115234375,-0.023681640625,-1.099236641221374,3.969465648854962,16.916030534351144,-3178,1,-6,-7.85577392578125,-2.4802904822118994,-0.007884,False,,False,,,,,32
2219.665,5.266599183999915,-0.893310546875,0.318115234375,-0.023681640625,-1.099236641221374,3.969465648854962,16.916030534351144,-3178,1,-6,-7.85577392578125,-2.4802904822118994,-0.007884,False,,False,,,,,32
2219.67,5.268602917999942,-0.83544921875,0.161376953125,-0.080322265625,-6.106870229007633,-0.061068702290076333,14.290076335877862,-3171,27,1,-7.838470458984375,-1.7097106394307195,0.001314,False,,False,,,,,32
2219.67,5.270599299999958,-0.83544921875,0.161376953125,-0.080322265625,-6.106870229007633,-0.061068702290076333,14.290076335877862,-3171,27,1,-7.838470458984375,-1.7097106394307195,0.001314,False,,False,,,,,32
2219.67,5.272605052000017,-0.83544921875,0.161376953125,-0.080322265625,-6.106870229007633,-0.061068702290076333,14.290076335877862,-3171,27,1,-7.838470458984375,-1.7097106394307195,0.001314,False,,False,,,,,32
2219.675,5.274606395999854,-0.925048828125,0.268310546875,-0.060302734375,-3.6946564885496183,5.374045801526718,16.30534351145038,-3165,29,2,-7.823638916015625,-1.0040171412140069,0.002628,False,,False,,,,,32
2219.675,5.27660361199969,-0.925048828125,0.268310546875,-0.060302734375,-3.6946564885496183,5.374045801526718,16.30534351145038,-3165,29,2,-7.823638916015625,-1.0040171412140069,0.002628,False,,False,,,,,32
2219.68,5.278608270999939,-0.888916015625,0.27685546875,-0.052978515625,2.4122137404580153,1.3740458015267174,16.916030534351144,-3160,27,0,-7.811279296875,-0.35570647180616555,0.0,False,,False,,,,,32
2219.68,5.280606781999722,-0.888916015625,0.27685546875,-0.052978515625,2.4122137404580153,1.3740458015267174,16.916030534351144,-3160,27,0,-7.811279296875,-0.35570647180616555,0.0,False,,False,,,,,32
2219.68,5.282611885999813,-0.888916015625,0.27685546875,-0.052978515625,2.4122137404580153,1.3740458015267174,16.916030534351144,-3160,27,0,-7.811279296875,-0.35570647180616555,0.0,False,,False,,,,,32
2219.685,5.284612878999724,-0.905517578125,0.246826171875,-0.036865234375,3.8167938931297707,0.7633587786259541,16.702290076335878,-3151,36,-2,-7.789031982421875,0.23696295132412315,-0.002628,False,,False,,,,,32
2219.685,5.286616593999952,-0.905517578125,0.246826171875,-0.036865234375,3.8167938931297707,0.7633587786259541,16.702290076335878,-3151,36,-2,-7.789031982421875,0.23696295132412315,-0.002628,False,,False,,,,,32
2219.69,5.288618531999873,-0.921142578125,0.21630859375,-0.030517578125,4.488549618320611,-0.15267175572519084,15.96946564885496,-3138,60,0,-7.75689697265625,0.794160250275916,0.0,False,,False,,,,,32
2219.69,5.290617709999879,-0.921142578125,0.21630859375,-0.030517578125,4.488549618320611,-0.15267175572519084,15.96946564885496,-3138,60,0,-7.75689697265625,0.794160250275916,0.0,False,,False,,,,,32
2219.69,5.292620090999662,-0.921142578125,0.21630859375,-0.030517578125,4.488549618320611,-0.15267175572519084,15.96946564885496,-3138,60,0,-7.75689697265625,0.794160250275916,0.0,False,,False,,,,,32
2219.695,5.2946220099997845,-0.936279296875,0.1962890625,-0.01708984375,5.740458015267175,-1.4961832061068703,14.198473282442748,-3112,117,2,-7.692626953125,1.3583515772746377,0.002628,False,,False,,,,,32
2219.695,5.296620873999927,-0.936279296875,0.1962890625,-0.01708984375,5.740458015267175,-1.4961832061068703,14.198473282442748,-3112,117,2,-7.692626953125,1.3583515772746377,0.002628,False,,False,,,,,32
2219.7000000000003,5.2986242919996585,-0.932373046875,0.203369140625,0.0,5.679389312977099,-3.7251908396946565,14.076335877862595,-3086,115,-3,-7.62835693359375,1.9739400160297405,-0.003942,False,,False,,,,,32
2219.7000000000003,5.300624858999981,-0.932373046875,0.203369140625,0.0,5.679389312977099,-3.7251908396946565,14.076335877862595,-3086,115,-3,-7.62835693359375,1.9739400160297405,-0.003942,False,,False,,,,,32
2219.7000000000003,5.302626555999723,-0.932373046875,0.203369140625,0.0,5.679389312977099,-3.7251908396946565,14.076335877862595,-3086,115,-3,-7.62835693359375,1.9739400160297405,-0.003942,False,,False,,,,,32
2219.705,5.30462895599976,-0.94580078125,0.176025390625,-0.001708984375,5.2824427480916025,-5.862595419847328,11.66412213740458,-3058,128,-3,-7.55914306640625,2.6504968751049374,-0.003942,False,,False,,,,,32
2219.705,5.3066291529999035,-0.94580078125,0.176025390625,-0.001708984375,5.2824427480916025,-5.862595419847328,11.66412213740458,-3058,128,-3,-7.55914306640625,2.6504968751049374,-0.003942,False,,False,,,,,32
2219.71,5.308630942000036,-0.97705078125,0.193115234375,0.00341796875,8.15267175572519,-6.961832061068702,11.114503816793892,-3023,157,-5,-7.472625732421875,3.3879898289372594,-0.0065699999999999995,False,,False,,,,,32
2219.71,5.3106309529998725,-0.97705078125,0.193115234375,0.00341796875,8.15267175572519,-6.961832061068702,11.114503816793892,-3023,157,-5,-7.472625732421875,3.3879898289372594,-0.0065699999999999995,False,,False,,,,,32
2219.71,5.312633408999773,-0.97705078125,0.193115234375,0.00341796875,8.15267175572519,-6.961832061068702,11.114503816793892,-3023,157,-5,-7.472625732421875,3.3879898289372594,-0.0065699999999999995,False,,False,,,,,32
2219.715,5.314633771999979,-0.9443359375,0.1796875,-0.0107421875,7.938931297709924,-8.213740458015266,9.526717557251908,-2977,207,-2,-7.358917236328125,4.214157117307704,-0.002628,False,,False,,,,,32
2219.715,5.316635098000006,-0.9443359375,0.1796875,-0.0107421875,7.938931297709924,-8.213740458015266,9.526717557251908,-2977,207,-2,-7.358917236328125,4.214157117307704,-0.002628,False,,False,,,,,32
2219.7200000000003,5.3186361650000435,-0.98095703125,0.1640625,-0.005126953125,11.66412213740458,-11.358778625954198,6.870229007633587,-2925,234,-7,-7.230377197265625,5.1652601181411795,-0.009198,False,,False,,,,,32
2219.7200000000003,5.320637657999669,-0.98095703125,0.1640625,-0.005126953125,11.66412213740458,-11.358778625954198,6.870229007633587,-2925,234,-7,-7.230377197265625,5.1652601181411795,-0.009198,False,,False,,,,,32
2219.7200000000003,5.322638243999791,-0.98095703125,0.1640625,-0.005126953125,11.66412213740458,-11.358778625954198,6.870229007633587,-2925,234,-7,-7.230377197265625,5.1652601181411795,-0.009198,False,,False,,,,,32
2219.725,5.324642273999871,-1.021240234375,0.171875,0.006591796875,11.938931297709923,-13.343511450381678,6.1679389312977095,-2867,247,0,-7.087005615234375,6.259103257256832,0.0,False,,False,,,,,32
2219.725,5.32664098899977,-1.021240234375,0.171875,0.006591796875,11.938931297709923,-13.343511450381678,6.1679389312977095,-2867,247,0,-7.087005615234375,6.259103257256832,0.0,False,,False,,,,,32
2219.73,5.328643962999649,-1.0048828125,0.125732421875,-0.02099609375,11.419847328244275,-15.725190839694656,4.0,-2802,287,2,-6.92633056640625,7.501362219313033,0.002628,False,,False,,,,,32
2219.73,5.33064264099994,-1.0048828125,0.125732421875,-0.02099609375,11.419847328244275,-15.725190839694656,4.0,-2802,287,2,-6.92633056640625,7.501362219313033,0.002628,False,,False,,,,,32
2219.73,5.332644855999661,-1.0048828125,0.125732421875,-0.02099609375,11.419847328244275,-15.725190839694656,4.0,-2802,287,2,-6.92633056640625,7.501362219313033,0.002628,False,,False,,,,,32
2219.735,5.334647330999815,-1.041015625,0.14404296875,-0.01025390625,11.603053435114504,-14.99236641221374,3.1755725190839694,-2732,309,-4,-6.7532958984375,8.894638523975326,-0.005256,False,,False,,,,,32
2219.735,5.3366472119996615,-1.041015625,0.14404296875,-0.01025390625,11.603053435114504,-14.99236641221374,3.1755725190839694,-2732,309,-4,-6.7532958984375,8.894638523975326,-0.005256,False,,False,,,,,32
2219.7400000000002,5.338649519999763,-1.072998046875,0.1474609375,-0.01904296875,11.389312977099236,-16.671755725190838,1.984732824427481,-2658,323,7,-6.57037353515625,10.431760352232937,0.009198,False,,False,,,,,32
2219.7400000000002,5.3406578649996845,-1.072998046875,0.1474609375,-0.01904296875,11.389312977099236,-16.671755725190838,1.984732824427481,-2658,323,7,-6.57037353515625,10.431760352232937,0.009198,False,,False,,,,,32
2219.7400000000002,5.342659357999764,-1.072998046875,0.1474609375,-0.01904296875,11.389312977099236,-16.671755725190838,1.984732824427481,-2658,323,7,-6.57037353515625,10.431760352232937,0.009198,False,,False,,,,,32
2219.745,5.34466277599995,-1.056640625,0.14599609375,-0.04443359375,8.48854961832061,-16.0,2.564885496183206,-2589,304,4,-6.399810791015625,12.081363183959825,0.005256,False,,False,,,,,32
2219.745,5.346663009999702,-1.056640625,0.14599609375,-0.04443359375,8.48854961832061,-16.0,2.564885496183206,-2589,304,4,-6.399810791015625,12.081363183959825,0.005256,False,,False,,,,,32
2219.75,5.348665928999708,-1.084228515625,0.1484375,-0.048828125,7.145038167938931,-15.725190839694656,2.045801526717557,-2520,297,0,-6.229248046875,13.79049267858541,0.0,False,,False,,,,,32
2219.75,5.350664124999639,-1.084228515625,0.1484375,-0.048828125,7.145038167938931,-15.725190839694656,2.045801526717557,-2520,297,0,-6.229248046875,13.79049267858541,0.0,False,,False,,,,,32
2219.75,5.3526685259998885,-1.084228515625,0.1484375,-0.048828125,7.145038167938931,-15.725190839694656,2.045801526717557,-2520,297,0,-6.229248046875,13.79049267858541,0.0,False,,False,,,,,32
2219.755,5.354669629999989,-1.087158203125,0.160400390625,-0.06005859375,7.114503816793893,-14.076335877862595,2.931297709923664,-2457,278,0,-6.073516845703125,15.50500156651407,0.0,False,,False,,,,,32
2219.755,5.35666797399972,-1.087158203125,0.160400390625,-0.06005859375,7.114503816793893,-14.076335877862595,2.931297709923664,-2457,278,0,-6.073516845703125,15.50500156651407,0.0,False,,False,,,,,32
2219.76,5.358672392999779,-1.0859375,0.147216796875,-0.085205078125,3.5114503816793894,-10.106870229007633,2.5038167938931295,-2399,253,-3,-5.930145263671875,17.168737792376263,-0.003942,False,,False,,,,,32
2219.76,5.360673681999742,-1.0859375,0.147216796875,-0.085205078125,3.5114503816793894,-10.106870229007633,2.5038167938931295,-2399,253,-3,-5.930145263671875,17.168737792376263,-0.003942,False,,False,,,,,32
2219.76,5.36267632299996,-1.0859375,0.147216796875,-0.085205078125,3.5114503816793894,-10.106870229007633,2.5038167938931295,-2399,253,-3,-5.930145263671875,17.168737792376263,-0.003942,False,,False,,,,,32
2219.765,5.364677482999923,-1.09423828125,0.18115234375,-0.08203125,3.3893129770992365,-7.786259541984733,3.9389312977099236,-2349,225,0,-5.806549072265625,18.72289388623415,0.0,False,,False,,,,,32
2219.765,5.366677456999696,-1.09423828125,0.18115234375,-0.08203125,3.3893129770992365,-7.786259541984733,3.9389312977099236,-2349,225,0,-5.806549072265625,18.72289388623415,0.0,False,,False,,,,,32
2219.77,5.368680227999903,-1.057373046875,0.15966796875,-0.1064453125,3.297709923664122,-7.480916030534351,3.633587786259542,-2301,202,-1,-5.687896728515625,20.1216152748198,-0.001314,False,,False,,,,,32
